Time,E4_Acc_x_x,E4_Acc_y_x,E4_Acc_z_x,Record_Index,Record_Timestamp,Glucose,E4_HR,EDA,TEMP,E4_Acc_x_y,E4_Acc_y_y,E4_Acc_z_y,BVP,Accel_Vertical,Accel_Lateral,Accel_Sagittal,BreathingWaveform
2022-06-08 14:18:46.031250,14.0,24.0,58.0,19144.0,2022-06-08 14:23:46,132.0,,,,14.0,24.0,58.0,27.45,1968,2033,2036,6302208
2022-06-08 14:18:46.062500,14.0,24.0,58.0,19144.0,2022-06-08 14:23:46,132.0,,,,14.0,24.0,58.0,21.39,1968,2032,2039,6303017
2022-06-08 14:18:46.093750,14.0,24.0,58.0,19144.0,2022-06-08 14:23:46,132.0,,,,14.0,24.0,58.0,19.6,1968,2033,2040,6303017
2022-06-08 14:18:46.125000,14.0,24.0,58.0,19144.0,2022-06-08 14:23:46,132.0,,0.278333,32.34,14.0,24.0,58.0,23.84,1968,2032,2039,6304474
2022-06-08 14:18:46.156250,14.0,24.0,58.0,19144.0,2022-06-08 14:23:46,132.0,,0.278333,32.34,14.0,24.0,58.0,30.2,1969,2032,2040,6305176
2022-06-08 14:18:46.187500,14.0,24.0,58.0,19144.0,2022-06-08 14:23:46,132.0,,0.278333,32.34,14.0,24.0,58.0,33.68,1968,2032,2039,6307011
2022-06-08 14:18:46.218750,13.0,24.0,58.0,19144.0,2022-06-08 14:23:46,132.0,,0.278333,32.34,13.0,24.0,58.0,33.85,1967,2033,2037,6307011
2022-06-08 14:18:46.250000,14.0,24.0,58.0,19144.0,2022-06-08 14:23:46,132.0,,0.278333,32.34,14.0,24.0,58.0,34.33,1967,2033,2038,6308090
2022-06-08 14:18:46.281250,14.0,24.0,58.0,19144.0,2022-06-08 14:23:46,132.0,,0.278333,32.34,14.0,24.0,58.0,37.03,1969,2032,2039,6309763
2022-06-08 14:18:46.312500,14.0,24.0,58.0,19144.0,2022-06-08 14:23:46,132.0,,0.278333,32.34,14.0,24.0,58.0,39.12,1967,2033,2037,6311382
2022-06-08 14:18:46.343750,14.0,24.0,58.0,19144.0,2022-06-08 14:23:46,132.0,,0.278333,32.34,14.0,24.0,58.0,37.45,1968,2032,2042,6312570
2022-06-08 14:18:46.375000,14.0,24.0,58.0,19144.0,2022-06-08 14:23:46,132.0,,0.278333,32.34,14.0,24.0,58.0,34.91,1968,2032,2039,6312570
2022-06-08 14:18:46.406250,14.0,24.0,58.0,19144.0,2022-06-08 14:23:46,132.0,,0.279614,32.34,14.0,24.0,58.0,37.73,1968,2031,2038,6313919
2022-06-08 14:18:46.437500,13.0,25.0,57.0,19144.0,2022-06-08 14:23:46,132.0,,0.279614,32.34,13.0,25.0,57.0,44.96,1968,2033,2038,6315916
2022-06-08 14:18:46.468750,14.0,25.0,58.0,19144.0,2022-06-08 14:23:46,132.0,,0.279614,32.34,14.0,25.0,58.0,47.61,1968,2033,2041,6317211
2022-06-08 14:18:46.500000,15.0,24.0,58.0,19144.0,2022-06-08 14:23:46,132.0,70.45,0.279614,32.34,15.0,24.0,58.0,40.35,1968,2033,2039,6317211
2022-06-08 14:18:46.531250,15.0,23.0,58.0,19144.0,2022-06-08 14:23:46,132.0,70.45,0.279614,32.34,15.0,23.0,58.0,30.4,1967,2032,2039,6318236
2022-06-08 14:18:46.562500,12.0,25.0,57.0,19144.0,2022-06-08 14:23:46,132.0,70.45,0.279614,32.34,12.0,25.0,57.0,35.35,1967,2036,2042,6319640
2022-06-08 14:18:46.593750,14.0,25.0,58.0,19144.0,2022-06-08 14:23:46,132.0,70.45,0.279614,32.34,14.0,25.0,58.0,71.48,1970,2036,2039,6320287
2022-06-08 14:18:46.625000,14.0,25.0,58.0,19144.0,2022-06-08 14:23:46,132.0,70.45,0.279614,32.34,14.0,25.0,58.0,129.11,1968,2036,2038,6321475
2022-06-08 14:18:46.656250,14.0,25.0,58.0,19144.0,2022-06-08 14:23:46,132.0,70.45,0.277051,32.34,14.0,25.0,58.0,165.18,1968,2032,2039,6321475
2022-06-08 14:18:46.687500,13.0,24.0,59.0,19144.0,2022-06-08 14:23:46,132.0,70.45,0.277051,32.34,13.0,24.0,59.0,145.81,1968,2032,2041,6322932
2022-06-08 14:18:46.718750,14.0,23.0,58.0,19144.0,2022-06-08 14:23:46,132.0,70.45,0.277051,32.34,14.0,23.0,58.0,86.07,1968,2033,2040,6323364
2022-06-08 14:18:46.750000,13.0,24.0,58.0,19144.0,2022-06-08 14:23:46,132.0,70.45,0.277051,32.34,13.0,24.0,58.0,24.15,1968,2032,2043,6322986
2022-06-08 14:18:46.781250,13.0,25.0,58.0,19144.0,2022-06-08 14:23:46,132.0,70.45,0.277051,32.34,13.0,25.0,58.0,-22.17,1969,2033,2042,6323255
2022-06-08 14:18:46.812500,13.0,24.0,58.0,19144.0,2022-06-08 14:23:46,132.0,70.45,0.277051,32.34,13.0,24.0,58.0,-51.82,1968,2033,2041,6323255
2022-06-08 14:18:46.843750,13.0,24.0,58.0,19144.0,2022-06-08 14:23:46,132.0,70.45,0.277051,32.34,13.0,24.0,58.0,-64.0,1968,2032,2041,6324065
2022-06-08 14:18:46.875000,14.0,25.0,57.0,19144.0,2022-06-08 14:23:46,132.0,70.45,0.277051,32.34,14.0,25.0,57.0,-65.46,1968,2032,2041,6324173
2022-06-08 14:18:46.906250,15.0,24.0,58.0,19144.0,2022-06-08 14:23:46,132.0,70.45,0.27577,32.34,15.0,24.0,58.0,-69.29,1968,2033,2037,6324929
2022-06-08 14:18:46.937500,15.0,23.0,58.0,19144.0,2022-06-08 14:23:46,132.0,70.45,0.27577,32.34,15.0,23.0,58.0,-78.1,1968,2033,2041,6324929
2022-06-08 14:18:46.968750,13.0,24.0,58.0,19144.0,2022-06-08 14:23:46,132.0,70.45,0.27577,32.34,13.0,24.0,58.0,-84.29,1968,2032,2041,6325738
2022-06-08 14:18:47.000000,13.0,25.0,58.0,19144.0,2022-06-08 14:23:46,132.0,70.45,0.27577,32.34,13.0,25.0,58.0,-85.25,1968,2033,2040,6326278
2022-06-08 14:18:47.031250,13.0,24.0,58.0,19144.0,2022-06-08 14:23:46,132.0,70.45,0.27577,32.34,13.0,24.0,58.0,-87.34,1968,2031,2041,6326602
2022-06-08 14:18:47.062500,14.0,24.0,58.0,19144.0,2022-06-08 14:23:46,132.0,70.45,0.27577,32.34,14.0,24.0,58.0,-95.64,1969,2032,2041,6326710
2022-06-08 14:18:47.093750,14.0,24.0,58.0,19144.0,2022-06-08 14:23:46,132.0,70.45,0.27577,32.34,14.0,24.0,58.0,-105.01,1966,2033,2042,6326710
2022-06-08 14:18:47.125000,14.0,25.0,58.0,19144.0,2022-06-08 14:23:46,132.0,70.45,0.27577,32.34,14.0,25.0,58.0,-104.78,1967,2034,2040,6327843
2022-06-08 14:18:47.156250,14.0,24.0,58.0,19144.0,2022-06-08 14:23:46,132.0,70.45,0.277051,32.34,14.0,24.0,58.0,-92.34,1967,2033,2042,6328005
2022-06-08 14:18:47.187500,13.0,24.0,58.0,19144.0,2022-06-08 14:23:46,132.0,70.45,0.277051,32.34,13.0,24.0,58.0,-76.05,1967,2033,2039,6327951
2022-06-08 14:18:47.218750,14.0,24.0,58.0,19144.0,2022-06-08 14:23:46,132.0,70.45,0.277051,32.34,14.0,24.0,58.0,-63.2,1968,2033,2042,6327951
2022-06-08 14:18:47.250000,13.0,25.0,58.0,19144.0,2022-06-08 14:23:46,132.0,70.45,0.277051,32.34,13.0,25.0,58.0,-53.25,1969,2033,2040,6328437
2022-06-08 14:18:47.281250,13.0,24.0,58.0,19144.0,2022-06-08 14:23:46,132.0,70.45,0.277051,32.34,13.0,24.0,58.0,-43.59,1968,2032,2039,6328653
2022-06-08 14:18:47.312500,14.0,25.0,58.0,19144.0,2022-06-08 14:23:46,132.0,70.45,0.277051,32.34,14.0,25.0,58.0,-33.85,1968,2032,2040,6328707
2022-06-08 14:18:47.343750,14.0,25.0,58.0,19144.0,2022-06-08 14:23:46,132.0,70.45,0.277051,32.34,14.0,25.0,58.0,-23.68,1968,2034,2040,6329138
2022-06-08 14:18:47.375000,13.0,25.0,58.0,19144.0,2022-06-08 14:23:46,132.0,70.45,0.277051,32.34,13.0,25.0,58.0,-12.43,1967,2030,2040,6329138
2022-06-08 14:18:47.406250,14.0,25.0,58.0,19144.0,2022-06-08 14:23:46,132.0,70.45,0.277051,32.34,14.0,25.0,58.0,-1.26,1967,2034,2043,6329894
2022-06-08 14:18:47.437500,14.0,24.0,58.0,19144.0,2022-06-08 14:23:46,132.0,70.45,0.277051,32.34,14.0,24.0,58.0,8.35,1967,2032,2036,6329516
2022-06-08 14:18:47.468750,13.0,25.0,58.0,19144.0,2022-06-08 14:23:46,132.0,70.45,0.277051,32.34,13.0,25.0,58.0,18.47,1967,2031,2039,6329030
2022-06-08 14:18:47.500000,14.0,25.0,58.0,19144.0,2022-06-08 14:23:46,132.0,70.45,0.277051,32.34,14.0,25.0,58.0,32.62,1967,2032,2039,6329030
2022-06-08 14:18:47.531250,14.0,25.0,57.0,19144.0,2022-06-08 14:23:46,132.0,70.43,0.277051,32.34,14.0,25.0,57.0,48.6,1968,2032,2038,6327627
2022-06-08 14:18:47.562500,14.0,24.0,58.0,19144.0,2022-06-08 14:23:46,132.0,70.43,0.277051,32.34,14.0,24.0,58.0,58.52,1968,2032,2037,6327465
2022-06-08 14:18:47.593750,14.0,25.0,58.0,19144.0,2022-06-08 14:23:46,132.0,70.43,0.277051,32.34,14.0,25.0,58.0,58.02,1968,2032,2042,6325522
2022-06-08 14:18:47.625000,14.0,24.0,58.0,19144.0,2022-06-08 14:23:46,132.0,70.43,0.277051,32.34,14.0,24.0,58.0,50.52,1969,2034,2043,6323202
2022-06-08 14:18:47.656250,14.0,24.0,58.0,19144.0,2022-06-08 14:23:46,132.0,70.43,0.27577,32.34,14.0,24.0,58.0,41.11,1969,2033,2039,6323202
2022-06-08 14:18:47.687500,14.0,24.0,57.0,19144.0,2022-06-08 14:23:46,132.0,70.43,0.27577,32.34,14.0,24.0,57.0,31.52,1968,2033,2038,6321421
2022-06-08 14:18:47.718750,14.0,24.0,58.0,19144.0,2022-06-08 14:23:46,132.0,70.43,0.27577,32.34,14.0,24.0,58.0,22.12,1968,2032,2040,6319262
2022-06-08 14:18:47.750000,14.0,24.0,58.0,19144.0,2022-06-08 14:23:46,132.0,70.43,0.27577,32.34,14.0,24.0,58.0,13.91,1968,2033,2042,6318236
2022-06-08 14:18:47.781250,14.0,24.0,58.0,19144.0,2022-06-08 14:23:46,132.0,70.43,0.27577,32.34,14.0,24.0,58.0,6.91,1969,2032,2040,6316510
2022-06-08 14:18:47.812500,14.0,24.0,58.0,19144.0,2022-06-08 14:23:46,132.0,70.43,0.27577,32.34,14.0,24.0,58.0,-0.17,1968,2034,2037,6316510
2022-06-08 14:18:47.843750,14.0,24.0,58.0,19144.0,2022-06-08 14:23:46,132.0,70.43,0.27577,32.34,14.0,24.0,58.0,-7.91,1968,2032,2040,6315538
2022-06-08 14:18:47.875000,14.0,24.0,58.0,19144.0,2022-06-08 14:23:46,132.0,70.43,0.27577,32.34,14.0,24.0,58.0,-15.45,1969,2032,2039,6314998
2022-06-08 14:18:47.906250,14.0,24.0,58.0,19144.0,2022-06-08 14:23:46,132.0,70.43,0.277051,32.33,14.0,24.0,58.0,-22.28,1968,2031,2039,6313541
2022-06-08 14:18:47.937500,14.0,24.0,58.0,19144.0,2022-06-08 14:23:46,132.0,70.43,0.277051,32.33,14.0,24.0,58.0,-29.06,1968,2031,2042,6313541
2022-06-08 14:18:47.968750,14.0,24.0,58.0,19144.0,2022-06-08 14:23:46,132.0,70.43,0.277051,32.33,14.0,24.0,58.0,-37.2,1968,2033,2040,6311922
2022-06-08 14:18:48.000000,14.0,24.0,58.0,19144.0,2022-06-08 14:23:46,132.0,70.43,0.277051,32.33,14.0,24.0,58.0,-47.41,1968,2032,2038,6311760
2022-06-08 14:18:48.031250,14.0,24.0,58.0,19144.0,2022-06-08 14:23:46,132.0,70.43,0.277051,32.33,14.0,24.0,58.0,-57.1,1968,2031,2040,6310951
2022-06-08 14:18:48.062500,14.0,24.0,58.0,19144.0,2022-06-08 14:23:46,132.0,70.43,0.277051,32.33,14.0,24.0,58.0,-61.51,1968,2033,2042,6310249
2022-06-08 14:18:48.093750,14.0,24.0,58.0,19144.0,2022-06-08 14:23:46,132.0,70.43,0.277051,32.33,14.0,24.0,58.0,-59.32,1968,2033,2040,6310249
2022-06-08 14:18:48.125000,14.0,24.0,58.0,19144.0,2022-06-08 14:23:46,132.0,70.43,0.277051,32.33,14.0,24.0,58.0,-53.8,1967,2032,2039,6309493
2022-06-08 14:18:48.156250,14.0,24.0,58.0,19144.0,2022-06-08 14:23:46,132.0,70.43,0.277051,32.33,14.0,24.0,58.0,-47.79,1968,2032,2040,6309008
2022-06-08 14:18:48.187500,14.0,24.0,58.0,19144.0,2022-06-08 14:23:46,132.0,70.43,0.277051,32.33,14.0,24.0,58.0,-41.96,1968,2032,2038,6308468
2022-06-08 14:18:48.218750,14.0,24.0,58.0,19144.0,2022-06-08 14:23:46,132.0,70.43,0.277051,32.33,14.0,24.0,58.0,-37.43,1968,2032,2040,6308468
2022-06-08 14:18:48.250000,14.0,24.0,58.0,19144.0,2022-06-08 14:23:46,132.0,70.43,0.277051,32.33,14.0,24.0,58.0,-34.73,1968,2031,2042,6308360
2022-06-08 14:18:48.281250,14.0,24.0,58.0,19144.0,2022-06-08 14:23:46,132.0,70.43,0.277051,32.33,14.0,24.0,58.0,-32.27,1968,2032,2042,6308090
2022-06-08 14:18:48.312500,14.0,24.0,58.0,19144.0,2022-06-08 14:23:46,132.0,70.43,0.277051,32.33,14.0,24.0,58.0,-29.21,1968,2033,2038,6308522
2022-06-08 14:18:48.343750,14.0,24.0,58.0,19144.0,2022-06-08 14:23:46,132.0,70.43,0.277051,32.33,14.0,24.0,58.0,-27.92,1968,2033,2041,6306687
2022-06-08 14:18:48.375000,14.0,24.0,58.0,19144.0,2022-06-08 14:23:46,132.0,70.43,0.277051,32.33,14.0,24.0,58.0,-31.05,1968,2032,2040,6306687
2022-06-08 14:18:48.406250,14.0,24.0,58.0,19144.0,2022-06-08 14:23:46,132.0,70.43,0.27577,32.33,14.0,24.0,58.0,-37.04,1968,2032,2039,6308306
2022-06-08 14:18:48.437500,14.0,24.0,58.0,19144.0,2022-06-08 14:23:46,132.0,70.43,0.27577,32.33,14.0,24.0,58.0,-41.51,1969,2031,2041,6306471
2022-06-08 14:18:48.468750,14.0,24.0,58.0,19144.0,2022-06-08 14:23:46,132.0,70.43,0.27577,32.33,14.0,24.0,58.0,-43.7,1968,2032,2038,6304960
2022-06-08 14:18:48.500000,14.0,24.0,58.0,19144.0,2022-06-08 14:23:46,132.0,70.43,0.27577,32.33,14.0,24.0,58.0,-47.44,1968,2032,2041,6304960
2022-06-08 14:18:48.531250,14.0,24.0,58.0,19144.0,2022-06-08 14:23:46,132.0,70.4,0.27577,32.33,14.0,24.0,58.0,-52.99,1968,2033,2040,6304258
2022-06-08 14:18:48.562500,14.0,24.0,58.0,19144.0,2022-06-08 14:23:46,132.0,70.4,0.27577,32.33,14.0,24.0,58.0,-53.69,1968,2032,2040,6303665
2022-06-08 14:18:48.593750,14.0,24.0,58.0,19144.0,2022-06-08 14:23:46,132.0,70.4,0.27577,32.33,14.0,24.0,58.0,-43.58,1968,2032,2040,6303449
2022-06-08 14:18:48.625000,14.0,24.0,58.0,19144.0,2022-06-08 14:23:46,132.0,70.4,0.27577,32.33,14.0,24.0,58.0,-23.79,1967,2033,2037,6302963
2022-06-08 14:18:48.656250,14.0,24.0,58.0,19144.0,2022-06-08 14:23:46,132.0,70.4,0.279614,32.33,14.0,24.0,58.0,-0.03,1967,2033,2039,6302963
2022-06-08 14:18:48.687500,14.0,24.0,58.0,19144.0,2022-06-08 14:23:46,132.0,70.4,0.279614,32.33,14.0,24.0,58.0,22.81,1967,2032,2040,6303449
2022-06-08 14:18:48.718750,14.0,24.0,58.0,19144.0,2022-06-08 14:23:46,132.0,70.4,0.279614,32.33,14.0,24.0,58.0,43.09,1967,2033,2040,6303125
2022-06-08 14:18:48.750000,14.0,24.0,58.0,19144.0,2022-06-08 14:23:46,132.0,70.4,0.279614,32.33,14.0,24.0,58.0,61.44,1968,2032,2043,6303503
2022-06-08 14:18:48.781250,14.0,24.0,58.0,19144.0,2022-06-08 14:23:46,132.0,70.4,0.279614,32.33,14.0,24.0,58.0,77.24,1968,2032,2038,6302963
2022-06-08 14:18:48.812500,14.0,24.0,58.0,19144.0,2022-06-08 14:23:46,132.0,70.4,0.279614,32.33,14.0,24.0,58.0,87.38,1970,2034,2039,6302963
2022-06-08 14:18:48.843750,14.0,24.0,58.0,19144.0,2022-06-08 14:23:46,132.0,70.4,0.279614,32.33,14.0,24.0,58.0,88.58,1970,2034,2040,6303557
2022-06-08 14:18:48.875000,14.0,24.0,58.0,19144.0,2022-06-08 14:23:46,132.0,70.4,0.279614,32.33,14.0,24.0,58.0,80.13,1969,2032,2038,6303287
2022-06-08 14:18:48.906250,14.0,24.0,58.0,19144.0,2022-06-08 14:23:46,132.0,70.4,0.278333,32.33,14.0,24.0,58.0,64.66,1969,2032,2037,6303071
2022-06-08 14:18:48.937500,14.0,24.0,58.0,19144.0,2022-06-08 14:23:46,132.0,70.4,0.278333,32.33,14.0,24.0,58.0,47.34,1968,2032,2038,6303071
2022-06-08 14:18:48.968750,14.0,24.0,58.0,19144.0,2022-06-08 14:23:46,132.0,70.4,0.278333,32.33,14.0,24.0,58.0,33.53,1968,2032,2041,6303179
2022-06-08 14:18:49.000000,14.0,24.0,58.0,19144.0,2022-06-08 14:23:46,132.0,70.4,0.278333,32.33,14.0,24.0,58.0,25.86,1967,2032,2040,6302747
2022-06-08 14:18:49.031250,14.0,24.0,58.0,19144.0,2022-06-08 14:23:46,132.0,70.4,0.278333,32.33,14.0,24.0,58.0,23.21,1968,2033,2038,6302909
2022-06-08 14:18:49.062500,14.0,24.0,58.0,19144.0,2022-06-08 14:23:46,132.0,70.4,0.278333,32.33,14.0,24.0,58.0,22.18,1968,2032,2038,6302693
2022-06-08 14:18:49.093750,14.0,24.0,58.0,19144.0,2022-06-08 14:23:46,132.0,70.4,0.278333,32.33,14.0,24.0,58.0,19.08,1968,2032,2037,6302693
2022-06-08 14:18:49.125000,14.0,24.0,58.0,19144.0,2022-06-08 14:23:46,132.0,70.4,0.278333,32.33,14.0,24.0,58.0,12.82,1968,2032,2039,6302855
2022-06-08 14:18:49.156250,14.0,24.0,58.0,19144.0,2022-06-08 14:23:46,132.0,70.4,0.277051,32.33,14.0,24.0,58.0,5.19,1967,2032,2040,6301992
2022-06-08 14:18:49.187500,14.0,24.0,58.0,19144.0,2022-06-08 14:23:46,132.0,70.4,0.277051,32.33,14.0,24.0,58.0,-2.49,1967,2031,2038,6302262
2022-06-08 14:18:49.218750,14.0,24.0,58.0,19144.0,2022-06-08 14:23:46,132.0,70.4,0.277051,32.33,14.0,24.0,58.0,-11.12,1968,2031,2037,6302262
2022-06-08 14:18:49.250000,14.0,24.0,58.0,19144.0,2022-06-08 14:23:46,132.0,70.4,0.277051,32.33,14.0,24.0,58.0,-21.14,1967,2031,2040,6301668
2022-06-08 14:18:49.281250,14.0,24.0,58.0,19144.0,2022-06-08 14:23:46,132.0,70.4,0.277051,32.33,14.0,24.0,58.0,-29.89,1967,2031,2041,6301830
2022-06-08 14:18:49.312500,14.0,24.0,58.0,19144.0,2022-06-08 14:23:46,132.0,70.4,0.277051,32.33,14.0,24.0,58.0,-33.31,1967,2031,2042,6299671
2022-06-08 14:18:49.343750,14.0,24.0,58.0,19144.0,2022-06-08 14:23:46,132.0,70.4,0.277051,32.33,14.0,24.0,58.0,-29.31,1968,2032,2044,6298754
2022-06-08 14:18:49.375000,14.0,24.0,58.0,19144.0,2022-06-08 14:23:46,132.0,70.4,0.277051,32.33,14.0,24.0,58.0,-20.49,1968,2031,2043,6298754
2022-06-08 14:18:49.406250,14.0,24.0,58.0,19144.0,2022-06-08 14:23:46,132.0,70.4,0.278333,32.33,14.0,24.0,58.0,-12.61,1968,2032,2040,6298430
2022-06-08 14:18:49.437500,14.0,24.0,58.0,19144.0,2022-06-08 14:23:46,132.0,70.4,0.278333,32.33,14.0,24.0,58.0,-9.47,1968,2032,2040,6298699
2022-06-08 14:18:49.468750,14.0,24.0,58.0,19144.0,2022-06-08 14:23:46,132.0,70.4,0.278333,32.33,14.0,24.0,58.0,-10.08,1968,2033,2038,6298160
2022-06-08 14:18:49.500000,14.0,24.0,58.0,19144.0,2022-06-08 14:23:46,132.0,70.4,0.278333,32.33,14.0,24.0,58.0,-11.01,1968,2032,2042,6298160
2022-06-08 14:18:49.531250,14.0,24.0,58.0,19144.0,2022-06-08 14:23:46,132.0,70.37,0.278333,32.33,14.0,24.0,58.0,-10.18,1968,2032,2041,6298592
2022-06-08 14:18:49.562500,14.0,24.0,58.0,19144.0,2022-06-08 14:23:46,132.0,70.37,0.278333,32.33,14.0,24.0,58.0,-7.74,1968,2031,2041,6298592
2022-06-08 14:18:49.593750,14.0,24.0,58.0,19144.0,2022-06-08 14:23:46,132.0,70.37,0.278333,32.33,14.0,24.0,58.0,-4.06,1968,2032,2040,6298538
2022-06-08 14:18:49.625000,14.0,24.0,58.0,19144.0,2022-06-08 14:23:46,132.0,70.37,0.278333,32.33,14.0,24.0,58.0,0.73,1969,2033,2039,6299239
2022-06-08 14:18:49.656250,14.0,24.0,58.0,19144.0,2022-06-08 14:23:46,132.0,70.37,0.278333,32.33,14.0,24.0,58.0,5.57,1969,2032,2041,6299239
2022-06-08 14:18:49.687500,14.0,24.0,58.0,19144.0,2022-06-08 14:23:46,132.0,70.37,0.278333,32.33,14.0,24.0,58.0,9.03,1969,2030,2041,6300481
2022-06-08 14:18:49.718750,14.0,24.0,58.0,19144.0,2022-06-08 14:23:46,132.0,70.37,0.278333,32.33,14.0,24.0,58.0,10.62,1969,2032,2044,6301560
2022-06-08 14:18:49.750000,14.0,24.0,58.0,19144.0,2022-06-08 14:23:46,132.0,70.37,0.278333,32.33,14.0,24.0,58.0,10.28,1970,2031,2041,6303395
2022-06-08 14:18:49.781250,14.0,24.0,58.0,19144.0,2022-06-08 14:23:46,132.0,70.37,0.278333,32.33,14.0,24.0,58.0,8.22,1968,2031,2043,6304852
2022-06-08 14:18:49.812500,14.0,24.0,58.0,19144.0,2022-06-08 14:23:46,132.0,70.37,0.278333,32.33,14.0,24.0,58.0,5.63,1969,2031,2040,6304852
2022-06-08 14:18:49.843750,14.0,24.0,58.0,19144.0,2022-06-08 14:23:46,132.0,70.37,0.278333,32.33,14.0,24.0,58.0,3.55,1968,2032,2043,6306957
2022-06-08 14:18:49.875000,14.0,24.0,58.0,19144.0,2022-06-08 14:23:46,132.0,70.37,0.278333,32.33,14.0,24.0,58.0,1.8,1969,2032,2039,6309008
2022-06-08 14:18:49.906250,14.0,24.0,58.0,19144.0,2022-06-08 14:23:46,132.0,70.37,0.277051,32.33,14.0,24.0,58.0,-0.43,1968,2032,2039,6310843
2022-06-08 14:18:49.937500,14.0,24.0,58.0,19144.0,2022-06-08 14:23:46,132.0,70.37,0.277051,32.33,14.0,24.0,58.0,-3.7,1968,2032,2040,6310843
2022-06-08 14:18:49.968750,14.0,24.0,58.0,19144.0,2022-06-08 14:23:46,132.0,70.37,0.277051,32.33,14.0,24.0,58.0,-8.11,1967,2030,2042,6313271
2022-06-08 14:18:50.000000,14.0,24.0,58.0,19144.0,2022-06-08 14:23:46,132.0,70.37,0.277051,32.33,14.0,24.0,58.0,-13.44,1967,2031,2042,6315214
2022-06-08 14:18:50.031250,14.0,24.0,58.0,19144.0,2022-06-08 14:23:46,132.0,70.37,0.277051,32.33,14.0,24.0,58.0,-19.9,1968,2032,2043,6316456
2022-06-08 14:18:50.062500,14.0,24.0,58.0,19144.0,2022-06-08 14:23:46,132.0,70.37,0.277051,32.33,14.0,24.0,58.0,-27.23,1968,2034,2041,6317157
2022-06-08 14:18:50.093750,14.0,24.0,58.0,19144.0,2022-06-08 14:23:46,132.0,70.37,0.277051,32.33,14.0,24.0,58.0,-31.89,1968,2032,2041,6317157
2022-06-08 14:18:50.125000,14.0,24.0,58.0,19144.0,2022-06-08 14:23:46,132.0,70.37,0.277051,32.33,14.0,24.0,58.0,-28.25,1968,2032,2037,6317751
2022-06-08 14:18:50.156250,14.0,24.0,58.0,19144.0,2022-06-08 14:23:46,132.0,70.37,0.278333,32.33,14.0,24.0,58.0,-15.69,1968,2033,2041,6319262
2022-06-08 14:18:50.187500,14.0,24.0,58.0,19144.0,2022-06-08 14:23:46,132.0,70.37,0.278333,32.33,14.0,24.0,58.0,-1.18,1968,2031,2039,6319208
2022-06-08 14:18:50.218750,14.0,24.0,58.0,19144.0,2022-06-08 14:23:46,132.0,70.37,0.278333,32.33,14.0,24.0,58.0,8.19,1968,2031,2041,6319208
2022-06-08 14:18:50.250000,14.0,24.0,58.0,19144.0,2022-06-08 14:23:46,132.0,70.37,0.278333,32.33,14.0,24.0,58.0,12.03,1968,2032,2044,6319964
2022-06-08 14:18:50.281250,14.0,24.0,58.0,19144.0,2022-06-08 14:23:46,132.0,70.37,0.278333,32.33,14.0,24.0,58.0,13.71,1968,2033,2047,6321043
2022-06-08 14:18:50.312500,14.0,24.0,58.0,19144.0,2022-06-08 14:23:46,132.0,70.37,0.278333,32.33,14.0,24.0,58.0,14.58,1969,2035,2045,6321960
2022-06-08 14:18:50.343750,14.0,24.0,58.0,19144.0,2022-06-08 14:23:46,132.0,70.37,0.278333,32.33,14.0,24.0,58.0,14.28,1968,2034,2046,6322554
2022-06-08 14:18:50.375000,14.0,24.0,58.0,19144.0,2022-06-08 14:23:46,132.0,70.37,0.278333,32.33,14.0,24.0,58.0,13.97,1968,2033,2046,6322554
2022-06-08 14:18:50.406250,14.0,24.0,58.0,19144.0,2022-06-08 14:23:46,132.0,70.37,0.27577,32.33,14.0,24.0,58.0,15.4,1968,2036,2044,6324065
2022-06-08 14:18:50.437500,14.0,24.0,58.0,19144.0,2022-06-08 14:23:46,132.0,70.37,0.27577,32.33,14.0,24.0,58.0,17.76,1968,2032,2043,6324821
2022-06-08 14:18:50.468750,14.0,24.0,58.0,19144.0,2022-06-08 14:23:46,132.0,70.37,0.27577,32.33,14.0,24.0,58.0,18.59,1968,2033,2044,6325846
2022-06-08 14:18:50.500000,14.0,24.0,58.0,19144.0,2022-06-08 14:23:46,132.0,70.37,0.27577,32.33,14.0,24.0,58.0,17.57,1968,2033,2043,6325846
2022-06-08 14:18:50.531250,14.0,24.0,58.0,19144.0,2022-06-08 14:23:46,132.0,70.37,0.27577,32.33,14.0,24.0,58.0,15.55,1968,2032,2045,6326440
2022-06-08 14:18:50.562500,14.0,24.0,58.0,19144.0,2022-06-08 14:23:46,132.0,70.37,0.27577,32.33,14.0,24.0,58.0,11.95,1968,2032,2042,6327303
2022-06-08 14:18:50.593750,14.0,24.0,58.0,19144.0,2022-06-08 14:23:46,132.0,70.37,0.27577,32.33,14.0,24.0,58.0,6.36,1968,2032,2044,6327735
2022-06-08 14:18:50.625000,14.0,24.0,58.0,19144.0,2022-06-08 14:23:46,132.0,70.37,0.27577,32.33,14.0,24.0,58.0,-0.14,1968,2032,2041,6327789
2022-06-08 14:18:50.656250,13.0,24.0,58.0,19144.0,2022-06-08 14:23:46,132.0,70.37,0.278333,32.33,13.0,24.0,58.0,-6.59,1967,2030,2041,6327789
2022-06-08 14:18:50.687500,13.0,24.0,58.0,19144.0,2022-06-08 14:23:46,132.0,70.37,0.278333,32.33,13.0,24.0,58.0,-12.2,1967,2031,2043,6329246
2022-06-08 14:18:50.718750,13.0,23.0,58.0,19144.0,2022-06-08 14:23:46,132.0,70.37,0.278333,32.33,13.0,23.0,58.0,-15.69,1967,2033,2043,6329786
2022-06-08 14:18:50.750000,14.0,24.0,58.0,19144.0,2022-06-08 14:23:46,132.0,70.37,0.278333,32.33,14.0,24.0,58.0,-17.65,1966,2032,2044,6329462
2022-06-08 14:18:50.781250,12.0,25.0,58.0,19144.0,2022-06-08 14:23:46,132.0,70.37,0.278333,32.33,12.0,25.0,58.0,-21.42,1967,2032,2045,6330595
2022-06-08 14:18:50.812500,13.0,24.0,58.0,19144.0,2022-06-08 14:23:46,132.0,70.37,0.278333,32.33,13.0,24.0,58.0,-28.99,1967,2031,2045,6330595
2022-06-08 14:18:50.843750,14.0,24.0,58.0,19144.0,2022-06-08 14:23:46,132.0,70.37,0.278333,32.33,14.0,24.0,58.0,-37.6,1967,2031,2043,6330865
2022-06-08 14:18:50.875000,14.0,24.0,58.0,19144.0,2022-06-08 14:23:46,132.0,70.37,0.278333,32.33,14.0,24.0,58.0,-40.37,1967,2033,2043,6330541
2022-06-08 14:18:50.906250,14.0,24.0,58.0,19144.0,2022-06-08 14:23:46,132.0,70.37,0.27577,32.31,14.0,24.0,58.0,-31.09,1968,2033,2044,6329732
2022-06-08 14:18:50.937500,13.0,24.0,58.0,19144.0,2022-06-08 14:23:46,132.0,70.37,0.27577,32.31,13.0,24.0,58.0,-11.44,1968,2032,2044,6329732
2022-06-08 14:18:50.968750,14.0,24.0,58.0,19144.0,2022-06-08 14:23:46,132.0,70.37,0.27577,32.31,14.0,24.0,58.0,8.65,1967,2031,2043,6330541
2022-06-08 14:18:51.000000,14.0,24.0,58.0,19144.0,2022-06-08 14:23:46,132.0,70.37,0.27577,32.31,14.0,24.0,58.0,20.9,1968,2032,2042,6327735
2022-06-08 14:18:51.031250,14.0,24.0,58.0,19144.0,2022-06-08 14:23:46,132.0,70.37,0.27577,32.31,14.0,24.0,58.0,26.24,1968,2033,2044,6326710
2022-06-08 14:18:51.062500,14.0,24.0,58.0,19144.0,2022-06-08 14:23:46,132.0,70.37,0.27577,32.31,14.0,24.0,58.0,29.99,1967,2032,2042,6324713
2022-06-08 14:18:51.093750,14.0,24.0,58.0,19144.0,2022-06-08 14:23:46,132.0,70.37,0.27577,32.31,14.0,24.0,58.0,33.85,1967,2032,2044,6324713
2022-06-08 14:18:51.125000,14.0,24.0,58.0,19144.0,2022-06-08 14:23:46,132.0,70.37,0.27577,32.31,14.0,24.0,58.0,36.4,1967,2036,2043,6322770
2022-06-08 14:18:51.156250,14.0,24.0,58.0,19144.0,2022-06-08 14:23:46,132.0,70.37,0.27577,32.31,14.0,24.0,58.0,37.46,1967,2034,2042,6320503
2022-06-08 14:18:51.187500,14.0,24.0,58.0,19144.0,2022-06-08 14:23:46,132.0,70.37,0.27577,32.31,14.0,24.0,58.0,38.65,1967,2033,2044,6318776
2022-06-08 14:18:51.218750,14.0,24.0,58.0,19144.0,2022-06-08 14:23:46,132.0,70.37,0.27577,32.31,14.0,24.0,58.0,40.59,1965,2031,2043,6318776
2022-06-08 14:18:51.250000,14.0,24.0,58.0,19144.0,2022-06-08 14:23:46,132.0,70.37,0.27577,32.31,14.0,24.0,58.0,41.73,1966,2032,2045,6318291
2022-06-08 14:18:51.281250,14.0,24.0,58.0,19144.0,2022-06-08 14:23:46,132.0,70.37,0.27577,32.31,14.0,24.0,58.0,40.37,1967,2032,2042,6317103
2022-06-08 14:18:51.312500,14.0,24.0,58.0,19144.0,2022-06-08 14:23:46,132.0,70.37,0.27577,32.31,14.0,24.0,58.0,36.56,1968,2032,2044,6316078
2022-06-08 14:18:51.343750,14.0,24.0,58.0,19144.0,2022-06-08 14:23:46,132.0,70.37,0.27577,32.31,14.0,24.0,58.0,30.58,1968,2033,2043,6314512
2022-06-08 14:18:51.375000,14.0,24.0,58.0,19144.0,2022-06-08 14:23:46,132.0,70.37,0.27577,32.31,14.0,24.0,58.0,21.3,1968,2032,2042,6314512
2022-06-08 14:18:51.406250,14.0,24.0,57.0,19144.0,2022-06-08 14:23:46,132.0,70.37,0.278333,32.31,14.0,24.0,57.0,8.79,1968,2033,2042,6312947
2022-06-08 14:18:51.437500,14.0,25.0,58.0,19144.0,2022-06-08 14:23:46,132.0,70.37,0.278333,32.31,14.0,25.0,58.0,-3.9,1968,2033,2044,6312731
2022-06-08 14:18:51.468750,14.0,24.0,58.0,19144.0,2022-06-08 14:23:46,132.0,70.37,0.278333,32.31,14.0,24.0,58.0,-14.05,1969,2032,2043,6311328
2022-06-08 14:18:51.500000,14.0,24.0,58.0,19144.0,2022-06-08 14:23:46,132.0,70.37,0.278333,32.31,14.0,24.0,58.0,-22.0,1969,2032,2042,6311328
2022-06-08 14:18:51.531250,14.0,24.0,58.0,19144.0,2022-06-08 14:23:46,132.0,70.37,0.278333,32.31,14.0,24.0,58.0,-29.29,1968,2033,2043,6310627
2022-06-08 14:18:51.562500,14.0,24.0,58.0,19144.0,2022-06-08 14:23:46,132.0,70.37,0.278333,32.31,14.0,24.0,58.0,-37.25,1969,2032,2043,6310195
2022-06-08 14:18:51.593750,14.0,25.0,58.0,19144.0,2022-06-08 14:23:46,132.0,70.37,0.278333,32.31,14.0,25.0,58.0,-46.24,1968,2033,2045,6309224
2022-06-08 14:18:51.625000,14.0,24.0,58.0,19144.0,2022-06-08 14:23:46,132.0,70.37,0.278333,32.31,14.0,24.0,58.0,-52.5,1968,2032,2044,6308684
2022-06-08 14:18:51.656250,14.0,24.0,58.0,19144.0,2022-06-08 14:23:46,132.0,70.37,0.278333,32.31,14.0,24.0,58.0,-48.39,1968,2032,2045,6308684
2022-06-08 14:18:51.687500,14.0,24.0,58.0,19144.0,2022-06-08 14:23:46,132.0,70.37,0.278333,32.31,14.0,24.0,58.0,-31.32,1968,2033,2041,6308792
2022-06-08 14:18:51.718750,14.0,24.0,58.0,19144.0,2022-06-08 14:23:46,132.0,70.37,0.278333,32.31,14.0,24.0,58.0,-9.58,1968,2033,2043,6308252
2022-06-08 14:18:51.750000,14.0,24.0,58.0,19144.0,2022-06-08 14:23:46,132.0,70.37,0.278333,32.31,14.0,24.0,58.0,6.22,1969,2033,2042,6307874
2022-06-08 14:18:51.781250,14.0,24.0,58.0,19144.0,2022-06-08 14:23:46,132.0,70.37,0.278333,32.31,14.0,24.0,58.0,13.95,1968,2032,2043,6306309
2022-06-08 14:18:51.812500,14.0,24.0,58.0,19144.0,2022-06-08 14:23:46,132.0,70.37,0.278333,32.31,14.0,24.0,58.0,17.68,1969,2033,2042,6306309
2022-06-08 14:18:51.843750,14.0,24.0,58.0,19144.0,2022-06-08 14:23:46,132.0,70.37,0.278333,32.31,14.0,24.0,58.0,19.68,1966,2032,2043,6304420
2022-06-08 14:18:51.875000,14.0,24.0,58.0,19144.0,2022-06-08 14:23:46,132.0,70.37,0.278333,32.31,14.0,24.0,58.0,20.2,1968,2032,2043,6303503
2022-06-08 14:18:51.906250,14.0,24.0,58.0,19144.0,2022-06-08 14:23:46,132.0,70.37,0.278333,32.31,14.0,24.0,58.0,20.75,1969,2032,2041,6302801
2022-06-08 14:18:51.937500,14.0,24.0,58.0,19144.0,2022-06-08 14:23:46,132.0,70.37,0.278333,32.31,14.0,24.0,58.0,22.97,1968,2032,2042,6302801
2022-06-08 14:18:51.968750,14.0,24.0,58.0,19144.0,2022-06-08 14:23:46,132.0,70.37,0.278333,32.31,14.0,24.0,58.0,26.29,1968,2033,2042,6302153
2022-06-08 14:18:52.000000,14.0,24.0,58.0,19144.0,2022-06-08 14:23:46,132.0,70.37,0.278333,32.31,14.0,24.0,58.0,29.08,1969,2032,2043,6301830
2022-06-08 14:18:52.031250,14.0,24.0,58.0,19144.0,2022-06-08 14:23:46,132.0,70.37,0.278333,32.31,14.0,24.0,58.0,30.34,1968,2033,2041,6301938
2022-06-08 14:18:52.062500,14.0,24.0,58.0,19144.0,2022-06-08 14:23:46,132.0,70.37,0.278333,32.31,14.0,24.0,58.0,29.34,1967,2034,2045,6302262
2022-06-08 14:18:52.093750,14.0,24.0,58.0,19144.0,2022-06-08 14:23:46,132.0,70.37,0.278333,32.31,14.0,24.0,58.0,25.81,1968,2032,2042,6302262
2022-06-08 14:18:52.125000,14.0,24.0,58.0,19144.0,2022-06-08 14:23:46,132.0,70.37,0.278333,32.31,14.0,24.0,58.0,20.57,1970,2032,2043,6301830
2022-06-08 14:18:52.156250,16.0,24.0,58.0,19144.0,2022-06-08 14:23:46,132.0,70.37,0.27577,32.31,16.0,24.0,58.0,14.86,1967,2033,2042,6301830
2022-06-08 14:18:52.187500,13.0,25.0,58.0,19144.0,2022-06-08 14:23:46,132.0,70.37,0.27577,32.31,13.0,25.0,58.0,9.29,1969,2033,2041,6301992
2022-06-08 14:18:52.218750,14.0,24.0,58.0,19144.0,2022-06-08 14:23:46,132.0,70.37,0.27577,32.31,14.0,24.0,58.0,3.68,1968,2033,2044,6301992
2022-06-08 14:18:52.250000,14.0,24.0,58.0,19144.0,2022-06-08 14:23:46,132.0,70.37,0.27577,32.31,14.0,24.0,58.0,-1.77,1967,2034,2041,6302909
2022-06-08 14:18:52.281250,13.0,24.0,58.0,19144.0,2022-06-08 14:23:46,132.0,70.37,0.27577,32.31,13.0,24.0,58.0,-6.26,1967,2032,2043,6302315
2022-06-08 14:18:52.312500,14.0,24.0,58.0,19144.0,2022-06-08 14:23:46,132.0,70.37,0.27577,32.31,14.0,24.0,58.0,-9.59,1968,2032,2045,6301452
2022-06-08 14:18:52.343750,14.0,24.0,58.0,19144.0,2022-06-08 14:23:46,132.0,70.37,0.27577,32.31,14.0,24.0,58.0,-13.36,1968,2033,2042,6302262
2022-06-08 14:18:52.375000,13.0,24.0,58.0,19144.0,2022-06-08 14:23:46,132.0,70.37,0.27577,32.31,13.0,24.0,58.0,-18.78,1968,2032,2045,6302262
2022-06-08 14:18:52.406250,13.0,24.0,58.0,19144.0,2022-06-08 14:23:46,132.0,70.37,0.277051,32.31,13.0,24.0,58.0,-21.78,1968,2033,2041,6301938
2022-06-08 14:18:52.437500,13.0,24.0,58.0,19144.0,2022-06-08 14:23:46,132.0,70.37,0.277051,32.31,13.0,24.0,58.0,-14.34,1968,2033,2043,6302369
2022-06-08 14:18:52.468750,13.0,24.0,58.0,19144.0,2022-06-08 14:23:46,132.0,70.37,0.277051,32.31,13.0,24.0,58.0,5.37,1968,2034,2041,6302478
2022-06-08 14:18:52.500000,13.0,24.0,58.0,19144.0,2022-06-08 14:23:46,132.0,70.37,0.277051,32.31,13.0,24.0,58.0,27.68,1968,2032,2041,6302478
2022-06-08 14:18:52.531250,14.0,24.0,58.0,19144.0,2022-06-08 14:23:46,132.0,70.38,0.277051,32.31,14.0,24.0,58.0,41.5,1968,2032,2040,6301668
2022-06-08 14:18:52.562500,14.0,24.0,58.0,19144.0,2022-06-08 14:23:46,132.0,70.38,0.277051,32.31,14.0,24.0,58.0,45.74,1969,2032,2043,6301128
2022-06-08 14:18:52.593750,13.0,24.0,58.0,19144.0,2022-06-08 14:23:46,132.0,70.38,0.277051,32.31,13.0,24.0,58.0,46.88,1967,2033,2042,6301722
2022-06-08 14:18:52.625000,13.0,24.0,58.0,19144.0,2022-06-08 14:23:46,132.0,70.38,0.277051,32.31,13.0,24.0,58.0,48.89,1968,2033,2040,6302208
2022-06-08 14:18:52.656250,13.0,24.0,58.0,19144.0,2022-06-08 14:23:46,132.0,70.38,0.27577,32.31,13.0,24.0,58.0,50.58,1968,2032,2043,6302208
2022-06-08 14:18:52.687500,13.0,24.0,58.0,19144.0,2022-06-08 14:23:46,132.0,70.38,0.27577,32.31,13.0,24.0,58.0,50.28,1967,2032,2042,6300858
2022-06-08 14:18:52.718750,13.0,24.0,58.0,19144.0,2022-06-08 14:23:46,132.0,70.38,0.27577,32.31,13.0,24.0,58.0,49.46,1967,2033,2041,6299239
2022-06-08 14:18:52.750000,13.0,24.0,58.0,19144.0,2022-06-08 14:23:46,132.0,70.38,0.27577,32.31,13.0,24.0,58.0,53.78,1968,2032,2043,6299131
2022-06-08 14:18:52.781250,13.0,24.0,58.0,19144.0,2022-06-08 14:23:46,132.0,70.38,0.27577,32.31,13.0,24.0,58.0,68.46,1968,2032,2041,6299131
2022-06-08 14:18:52.812500,14.0,24.0,58.0,19144.0,2022-06-08 14:23:46,132.0,70.38,0.27577,32.31,14.0,24.0,58.0,88.01,1968,2033,2044,6299131
2022-06-08 14:18:52.843750,13.0,24.0,58.0,19144.0,2022-06-08 14:23:46,132.0,70.38,0.27577,32.31,13.0,24.0,58.0,94.63,1969,2031,2041,6298592
2022-06-08 14:18:52.875000,13.0,24.0,58.0,19144.0,2022-06-08 14:23:46,132.0,70.38,0.27577,32.31,13.0,24.0,58.0,74.66,1968,2033,2040,6298160
2022-06-08 14:18:52.906250,13.0,24.0,58.0,19144.0,2022-06-08 14:23:46,132.0,70.38,0.278333,32.29,13.0,24.0,58.0,33.91,1970,2032,2041,6299077
2022-06-08 14:18:52.937500,14.0,24.0,58.0,19144.0,2022-06-08 14:23:46,132.0,70.38,0.278333,32.29,14.0,24.0,58.0,-8.94,1968,2033,2041,6299077
2022-06-08 14:18:52.968750,13.0,24.0,58.0,19144.0,2022-06-08 14:23:46,132.0,70.38,0.278333,32.29,13.0,24.0,58.0,-40.27,1969,2032,2043,6299131
2022-06-08 14:18:53.000000,14.0,24.0,58.0,19144.0,2022-06-08 14:23:46,132.0,70.38,0.278333,32.29,14.0,24.0,58.0,-58.39,1968,2034,2042,6299347
2022-06-08 14:18:53.031250,13.0,24.0,58.0,19144.0,2022-06-08 14:23:46,132.0,70.38,0.278333,32.29,13.0,24.0,58.0,-67.27,1968,2033,2038,6299671
2022-06-08 14:18:53.062500,13.0,24.0,58.0,19144.0,2022-06-08 14:23:46,132.0,70.38,0.278333,32.29,13.0,24.0,58.0,-71.12,1968,2033,2042,6300103
2022-06-08 14:18:53.093750,13.0,24.0,58.0,19144.0,2022-06-08 14:23:46,132.0,70.38,0.278333,32.29,13.0,24.0,58.0,-74.13,1968,2032,2043,6300103
2022-06-08 14:18:53.125000,14.0,24.0,58.0,19144.0,2022-06-08 14:23:46,132.0,70.38,0.278333,32.29,14.0,24.0,58.0,-79.47,1968,2032,2040,6300318
2022-06-08 14:18:53.156250,14.0,24.0,58.0,19144.0,2022-06-08 14:23:46,132.0,70.38,0.277051,32.29,14.0,24.0,58.0,-86.7,1968,2032,2042,6299833
2022-06-08 14:18:53.187500,13.0,24.0,58.0,19144.0,2022-06-08 14:23:46,132.0,70.38,0.277051,32.29,13.0,24.0,58.0,-90.65,1968,2033,2043,6299725
2022-06-08 14:18:53.218750,14.0,24.0,58.0,19144.0,2022-06-08 14:23:46,132.0,70.38,0.277051,32.29,14.0,24.0,58.0,-83.97,1968,2033,2041,6299725
2022-06-08 14:18:53.250000,13.0,24.0,58.0,19144.0,2022-06-08 14:23:46,132.0,70.38,0.277051,32.29,13.0,24.0,58.0,-64.27,1968,2032,2043,6300211
2022-06-08 14:18:53.281250,13.0,24.0,58.0,19144.0,2022-06-08 14:23:46,132.0,70.38,0.277051,32.29,13.0,24.0,58.0,-38.48,1968,2033,2041,6299077
2022-06-08 14:18:53.312500,13.0,24.0,58.0,19144.0,2022-06-08 14:23:46,132.0,70.38,0.277051,32.29,13.0,24.0,58.0,-16.26,1968,2032,2041,6299671
2022-06-08 14:18:53.343750,14.0,24.0,58.0,19144.0,2022-06-08 14:23:46,132.0,70.38,0.277051,32.29,14.0,24.0,58.0,-1.2,1970,2033,2040,6299024
2022-06-08 14:18:53.375000,13.0,24.0,58.0,19144.0,2022-06-08 14:23:46,132.0,70.38,0.277051,32.29,13.0,24.0,58.0,8.45,1969,2032,2043,6299024
2022-06-08 14:18:53.406250,13.0,24.0,58.0,19144.0,2022-06-08 14:23:46,132.0,70.38,0.274488,32.29,13.0,24.0,58.0,14.62,1968,2032,2041,6299941
2022-06-08 14:18:53.437500,13.0,24.0,58.0,19144.0,2022-06-08 14:23:46,132.0,70.38,0.274488,32.29,13.0,24.0,58.0,18.48,1968,2033,2043,6299077
2022-06-08 14:18:53.468750,14.0,24.0,58.0,19144.0,2022-06-08 14:23:46,132.0,70.38,0.274488,32.29,14.0,24.0,58.0,21.94,1968,2032,2043,6299401
2022-06-08 14:18:53.500000,14.0,24.0,58.0,19144.0,2022-06-08 14:23:46,132.0,70.38,0.274488,32.29,14.0,24.0,58.0,26.28,1967,2034,2044,6299401
2022-06-08 14:18:53.531250,14.0,24.0,58.0,19144.0,2022-06-08 14:23:46,132.0,70.38,0.274488,32.29,14.0,24.0,58.0,30.61,1967,2032,2043,6300588
2022-06-08 14:18:53.562500,14.0,24.0,58.0,19144.0,2022-06-08 14:23:46,132.0,70.38,0.274488,32.29,14.0,24.0,58.0,33.45,1966,2033,2044,6302909
2022-06-08 14:18:53.593750,14.0,24.0,58.0,19144.0,2022-06-08 14:23:46,132.0,70.38,0.274488,32.29,14.0,24.0,58.0,34.02,1968,2032,2043,6302855
2022-06-08 14:18:53.625000,14.0,24.0,58.0,19144.0,2022-06-08 14:23:46,132.0,70.38,0.274488,32.29,14.0,24.0,58.0,31.5,1968,2033,2039,6303071
2022-06-08 14:18:53.656250,14.0,24.0,58.0,19144.0,2022-06-08 14:23:46,132.0,70.38,0.277051,32.29,14.0,24.0,58.0,25.76,1969,2032,2042,6303071
2022-06-08 14:18:53.687500,14.0,24.0,58.0,19144.0,2022-06-08 14:23:46,132.0,70.38,0.277051,32.29,14.0,24.0,58.0,18.84,1967,2034,2042,6304798
2022-06-08 14:18:53.718750,14.0,24.0,58.0,19144.0,2022-06-08 14:23:46,132.0,70.38,0.277051,32.29,14.0,24.0,58.0,13.04,1967,2032,2043,6306309
2022-06-08 14:18:53.750000,14.0,24.0,58.0,19144.0,2022-06-08 14:23:46,132.0,70.38,0.277051,32.29,14.0,24.0,58.0,8.42,1966,2032,2041,6307551
2022-06-08 14:18:53.781250,14.0,24.0,58.0,19144.0,2022-06-08 14:23:46,132.0,70.38,0.277051,32.29,14.0,24.0,58.0,4.0,1967,2032,2039,6309547
2022-06-08 14:18:53.812500,14.0,24.0,58.0,19144.0,2022-06-08 14:23:46,132.0,70.38,0.277051,32.29,14.0,24.0,58.0,-0.52,1967,2032,2042,6309547
2022-06-08 14:18:53.843750,14.0,24.0,58.0,19144.0,2022-06-08 14:23:46,132.0,70.38,0.277051,32.29,14.0,24.0,58.0,-4.98,1968,2032,2040,6311005
2022-06-08 14:18:53.875000,14.0,24.0,58.0,19144.0,2022-06-08 14:23:46,132.0,70.38,0.277051,32.29,14.0,24.0,58.0,-9.48,1967,2033,2043,6311868
2022-06-08 14:18:53.906250,14.0,24.0,58.0,19144.0,2022-06-08 14:23:46,132.0,70.38,0.279614,32.29,14.0,24.0,58.0,-15.21,1968,2032,2044,6313919
2022-06-08 14:18:53.937500,14.0,24.0,58.0,19144.0,2022-06-08 14:23:46,132.0,70.38,0.279614,32.29,14.0,24.0,58.0,-24.1,1969,2033,2042,6313919
2022-06-08 14:18:53.968750,14.0,24.0,58.0,19144.0,2022-06-08 14:23:46,132.0,70.38,0.279614,32.29,14.0,24.0,58.0,-34.57,1968,2032,2041,6314728
2022-06-08 14:18:54.000000,14.0,24.0,58.0,19144.0,2022-06-08 14:23:46,132.0,70.38,0.279614,32.29,14.0,24.0,58.0,-38.57,1968,2033,2043,6316024
2022-06-08 14:18:54.031250,14.0,24.0,58.0,19144.0,2022-06-08 14:23:46,132.0,70.38,0.279614,32.29,14.0,24.0,58.0,-28.71,1968,2032,2040,6316671
2022-06-08 14:18:54.062500,14.0,24.0,58.0,19144.0,2022-06-08 14:23:46,132.0,70.38,0.279614,32.29,14.0,24.0,58.0,-9.16,1967,2032,2040,6318075
2022-06-08 14:18:54.093750,14.0,24.0,58.0,19144.0,2022-06-08 14:23:46,132.0,70.38,0.279614,32.29,14.0,24.0,58.0,7.57,1967,2033,2044,6318075
2022-06-08 14:18:54.125000,14.0,24.0,58.0,19144.0,2022-06-08 14:23:46,132.0,70.38,0.279614,32.29,14.0,24.0,58.0,14.98,1967,2032,2043,6319046
2022-06-08 14:18:54.156250,14.0,24.0,58.0,19144.0,2022-06-08 14:23:46,132.0,70.38,0.278333,32.29,14.0,24.0,58.0,16.93,1967,2034,2041,6319801
2022-06-08 14:18:54.187500,14.0,24.0,58.0,19144.0,2022-06-08 14:23:46,132.0,70.38,0.278333,32.29,14.0,24.0,58.0,18.29,1967,2033,2045,6320503
2022-06-08 14:18:54.218750,14.0,24.0,58.0,19144.0,2022-06-08 14:23:46,132.0,70.38,0.278333,32.29,14.0,24.0,58.0,19.43,1967,2032,2042,6320503
2022-06-08 14:18:54.250000,14.0,24.0,58.0,19144.0,2022-06-08 14:23:46,132.0,70.38,0.278333,32.29,14.0,24.0,58.0,19.86,1966,2032,2042,6321421
2022-06-08 14:18:54.281250,13.0,24.0,58.0,19144.0,2022-06-08 14:23:46,132.0,70.38,0.278333,32.29,13.0,24.0,58.0,20.03,1968,2031,2043,6322230
2022-06-08 14:18:54.312500,14.0,24.0,58.0,19144.0,2022-06-08 14:23:46,132.0,70.38,0.278333,32.29,14.0,24.0,58.0,19.63,1968,2032,2043,6323418
2022-06-08 14:18:54.343750,14.0,24.0,58.0,19144.0,2022-06-08 14:23:46,132.0,70.38,0.278333,32.29,14.0,24.0,58.0,17.8,1969,2034,2042,6323148
2022-06-08 14:18:54.375000,14.0,24.0,58.0,19144.0,2022-06-08 14:23:46,132.0,70.38,0.278333,32.29,14.0,24.0,58.0,14.56,1968,2034,2045,6323148
2022-06-08 14:18:54.406250,14.0,24.0,58.0,19144.0,2022-06-08 14:23:46,132.0,70.38,0.278333,32.29,14.0,24.0,58.0,10.07,1969,2033,2042,6324281
2022-06-08 14:18:54.437500,13.0,24.0,58.0,19144.0,2022-06-08 14:23:46,132.0,70.38,0.278333,32.29,13.0,24.0,58.0,3.72,1968,2034,2041,6324389
2022-06-08 14:18:54.468750,14.0,24.0,58.0,19144.0,2022-06-08 14:23:46,132.0,70.38,0.278333,32.29,14.0,24.0,58.0,-4.56,1968,2033,2042,6324551
2022-06-08 14:18:54.500000,14.0,24.0,58.0,19144.0,2022-06-08 14:23:46,132.0,70.38,0.278333,32.29,14.0,24.0,58.0,-13.65,1968,2033,2043,6324551
2022-06-08 14:18:54.531250,14.0,24.0,58.0,19144.0,2022-06-08 14:23:46,132.0,70.1,0.278333,32.29,14.0,24.0,58.0,-22.47,1968,2032,2043,6325414
2022-06-08 14:18:54.562500,14.0,24.0,58.0,19144.0,2022-06-08 14:23:46,132.0,70.1,0.278333,32.29,14.0,24.0,58.0,-31.15,1968,2032,2044,6325792
2022-06-08 14:18:54.593750,14.0,24.0,58.0,19144.0,2022-06-08 14:23:46,132.0,70.1,0.278333,32.29,14.0,24.0,58.0,-39.53,1969,2034,2045,6325630
2022-06-08 14:18:54.625000,14.0,24.0,58.0,19144.0,2022-06-08 14:23:46,132.0,70.1,0.278333,32.29,14.0,24.0,58.0,-46.04,1969,2034,2045,6325414
2022-06-08 14:18:54.656250,14.0,24.0,58.0,19144.0,2022-06-08 14:23:46,132.0,70.1,0.277051,32.29,14.0,24.0,58.0,-49.3,1968,2033,2043,6325414
2022-06-08 14:18:54.687500,13.0,24.0,58.0,19144.0,2022-06-08 14:23:46,132.0,70.1,0.277051,32.29,13.0,24.0,58.0,-50.18,1968,2032,2041,6325522
2022-06-08 14:18:54.718750,14.0,24.0,58.0,19144.0,2022-06-08 14:23:46,132.0,70.1,0.277051,32.29,14.0,24.0,58.0,-51.93,1968,2035,2042,6325306
2022-06-08 14:18:54.750000,14.0,24.0,58.0,19144.0,2022-06-08 14:23:46,132.0,70.1,0.277051,32.29,14.0,24.0,58.0,-56.59,1968,2033,2040,6325253
2022-06-08 14:18:54.781250,14.0,24.0,58.0,19144.0,2022-06-08 14:23:46,132.0,70.1,0.277051,32.29,14.0,24.0,58.0,-59.72,1968,2033,2041,6324767
2022-06-08 14:18:54.812500,14.0,24.0,58.0,19144.0,2022-06-08 14:23:46,132.0,70.1,0.277051,32.29,14.0,24.0,58.0,-52.0,1967,2031,2040,6324767
2022-06-08 14:18:54.843750,14.0,24.0,58.0,19144.0,2022-06-08 14:23:46,132.0,70.1,0.277051,32.29,14.0,24.0,58.0,-30.72,1967,2035,2043,6323255
2022-06-08 14:18:54.875000,14.0,24.0,58.0,19144.0,2022-06-08 14:23:46,132.0,70.1,0.277051,32.29,14.0,24.0,58.0,-5.15,1967,2034,2043,6321367
2022-06-08 14:18:54.906250,14.0,24.0,58.0,19144.0,2022-06-08 14:23:46,132.0,70.1,0.278333,32.27,14.0,24.0,58.0,13.9,1968,2033,2042,6320449
2022-06-08 14:18:54.937500,14.0,24.0,58.0,19144.0,2022-06-08 14:23:46,132.0,70.1,0.278333,32.27,14.0,24.0,58.0,24.77,1967,2033,2045,6320449
2022-06-08 14:18:54.968750,14.0,24.0,58.0,19144.0,2022-06-08 14:23:46,132.0,70.1,0.278333,32.27,14.0,24.0,58.0,31.49,1966,2034,2042,6318075
2022-06-08 14:18:55.000000,14.0,24.0,58.0,19144.0,2022-06-08 14:23:46,132.0,70.1,0.278333,32.27,14.0,24.0,58.0,35.87,1967,2034,2042,6316132
2022-06-08 14:18:55.031250,14.0,24.0,58.0,19144.0,2022-06-08 14:23:46,132.0,70.1,0.278333,32.27,14.0,24.0,58.0,38.0,1968,2034,2043,6314944
2022-06-08 14:18:55.062500,14.0,24.0,58.0,19144.0,2022-06-08 14:23:46,132.0,70.1,0.278333,32.27,14.0,24.0,58.0,39.11,1969,2034,2041,6314243
2022-06-08 14:18:55.093750,14.0,24.0,58.0,19144.0,2022-06-08 14:23:46,132.0,70.1,0.278333,32.27,14.0,24.0,58.0,40.53,1968,2035,2043,6314243
2022-06-08 14:18:55.125000,14.0,24.0,58.0,19144.0,2022-06-08 14:23:46,132.0,70.1,0.278333,32.27,14.0,24.0,58.0,41.26,1968,2034,2041,6312138
2022-06-08 14:18:55.156250,14.0,24.0,58.0,19144.0,2022-06-08 14:23:46,132.0,70.1,0.277051,32.27,14.0,24.0,58.0,39.03,1968,2034,2046,6310627
2022-06-08 14:18:55.187500,14.0,24.0,58.0,19144.0,2022-06-08 14:23:46,132.0,70.1,0.277051,32.27,14.0,24.0,58.0,34.31,1968,2035,2040,6310141
2022-06-08 14:18:55.218750,14.0,24.0,58.0,19144.0,2022-06-08 14:23:46,132.0,70.1,0.277051,32.27,14.0,24.0,58.0,29.95,1969,2033,2040,6310141
2022-06-08 14:18:55.250000,14.0,24.0,58.0,19144.0,2022-06-08 14:23:46,132.0,70.1,0.277051,32.27,14.0,24.0,58.0,26.33,1968,2035,2041,6308738
2022-06-08 14:18:55.281250,14.0,24.0,58.0,19144.0,2022-06-08 14:23:46,132.0,70.1,0.277051,32.27,14.0,24.0,58.0,20.45,1969,2036,2042,6307173
2022-06-08 14:18:55.312500,13.0,24.0,58.0,19144.0,2022-06-08 14:23:46,132.0,70.1,0.277051,32.27,13.0,24.0,58.0,11.88,1967,2033,2044,6305500
2022-06-08 14:18:55.343750,14.0,24.0,58.0,19144.0,2022-06-08 14:23:46,132.0,70.1,0.277051,32.27,14.0,24.0,58.0,4.48,1968,2032,2042,6305230
2022-06-08 14:18:55.375000,14.0,24.0,58.0,19144.0,2022-06-08 14:23:46,132.0,70.1,0.277051,32.27,14.0,24.0,58.0,-0.25,1968,2034,2045,6305230
2022-06-08 14:18:55.406250,13.0,24.0,58.0,19144.0,2022-06-08 14:23:46,132.0,70.1,0.278333,32.27,13.0,24.0,58.0,-5.62,1967,2034,2043,6303611
2022-06-08 14:18:55.437500,14.0,23.0,58.0,19144.0,2022-06-08 14:23:46,132.0,70.1,0.278333,32.27,14.0,23.0,58.0,-14.26,1967,2034,2044,6303449
2022-06-08 14:18:55.468750,13.0,24.0,58.0,19144.0,2022-06-08 14:23:46,132.0,70.1,0.278333,32.27,13.0,24.0,58.0,-24.64,1967,2034,2041,6302747
2022-06-08 14:18:55.500000,14.0,24.0,58.0,19144.0,2022-06-08 14:23:46,132.0,70.1,0.278333,32.27,14.0,24.0,58.0,-33.72,1967,2034,2043,6302747
2022-06-08 14:18:55.531250,13.0,24.0,58.0,19144.0,2022-06-08 14:23:46,132.0,69.82,0.278333,32.27,13.0,24.0,58.0,-40.55,1968,2035,2041,6303233
2022-06-08 14:18:55.562500,13.0,23.0,58.0,19144.0,2022-06-08 14:23:46,132.0,69.82,0.278333,32.27,13.0,23.0,58.0,-46.76,1966,2034,2042,6302909
2022-06-08 14:18:55.593750,14.0,24.0,58.0,19144.0,2022-06-08 14:23:46,132.0,69.82,0.278333,32.27,14.0,24.0,58.0,-55.01,1967,2032,2042,6302693
2022-06-08 14:18:55.625000,14.0,24.0,58.0,19144.0,2022-06-08 14:23:46,132.0,69.82,0.278333,32.27,14.0,24.0,58.0,-64.7,1968,2034,2043,6301560
2022-06-08 14:18:55.656250,14.0,24.0,58.0,19144.0,2022-06-08 14:23:46,132.0,69.82,0.277051,32.27,14.0,24.0,58.0,-68.28,1969,2034,2038,6301560
2022-06-08 14:18:55.687500,14.0,24.0,58.0,19144.0,2022-06-08 14:23:46,132.0,69.82,0.277051,32.27,14.0,24.0,58.0,-56.88,1968,2035,2042,6301776
2022-06-08 14:18:55.718750,14.0,24.0,58.0,19144.0,2022-06-08 14:23:46,132.0,69.82,0.277051,32.27,14.0,24.0,58.0,-32.09,1968,2033,2043,6301398
2022-06-08 14:18:55.750000,14.0,24.0,58.0,19144.0,2022-06-08 14:23:46,132.0,69.82,0.277051,32.27,14.0,24.0,58.0,-6.42,1969,2033,2045,6300804
2022-06-08 14:18:55.781250,14.0,24.0,58.0,19144.0,2022-06-08 14:23:46,132.0,69.82,0.277051,32.27,14.0,24.0,58.0,10.47,1968,2034,2045,6300534
2022-06-08 14:18:55.812500,14.0,24.0,58.0,19144.0,2022-06-08 14:23:46,132.0,69.82,0.277051,32.27,14.0,24.0,58.0,19.27,1967,2032,2041,6300534
2022-06-08 14:18:55.843750,14.0,24.0,58.0,19144.0,2022-06-08 14:23:46,132.0,69.82,0.277051,32.27,14.0,24.0,58.0,24.46,1967,2034,2040,6299995
2022-06-08 14:18:55.875000,14.0,24.0,58.0,19144.0,2022-06-08 14:23:46,132.0,69.82,0.277051,32.27,14.0,24.0,58.0,27.92,1967,2033,2042,6300427
2022-06-08 14:18:55.906250,14.0,24.0,58.0,19144.0,2022-06-08 14:23:46,132.0,69.82,0.278333,32.27,14.0,24.0,58.0,30.35,1967,2033,2046,6301128
2022-06-08 14:18:55.937500,14.0,24.0,58.0,19144.0,2022-06-08 14:23:46,132.0,69.82,0.278333,32.27,14.0,24.0,58.0,33.35,1967,2032,2041,6301128
2022-06-08 14:18:55.968750,14.0,24.0,58.0,19144.0,2022-06-08 14:23:46,132.0,69.82,0.278333,32.27,14.0,24.0,58.0,37.9,1966,2033,2041,6300211
2022-06-08 14:18:56.000000,14.0,24.0,58.0,19144.0,2022-06-08 14:23:46,132.0,69.82,0.278333,32.27,14.0,24.0,58.0,42.51,1967,2032,2037,6300103
2022-06-08 14:18:56.031250,14.0,23.0,58.0,19144.0,2022-06-08 14:23:46,132.0,69.82,0.278333,32.27,14.0,23.0,58.0,44.94,1967,2034,2042,6299941
2022-06-08 14:18:56.062500,14.0,24.0,58.0,19144.0,2022-06-08 14:23:46,132.0,69.82,0.278333,32.27,14.0,24.0,58.0,45.05,1967,2034,2044,6298483
2022-06-08 14:18:56.093750,14.0,24.0,58.0,19144.0,2022-06-08 14:23:46,132.0,69.82,0.278333,32.27,14.0,24.0,58.0,44.05,1968,2034,2041,6298483
2022-06-08 14:18:56.125000,14.0,24.0,58.0,19144.0,2022-06-08 14:23:46,132.0,69.82,0.278333,32.27,14.0,24.0,58.0,41.67,1968,2033,2042,6297998
2022-06-08 14:18:56.156250,14.0,24.0,58.0,19144.0,2022-06-08 14:23:46,132.0,69.82,0.278333,32.27,14.0,24.0,58.0,36.98,1968,2034,2043,6297998
2022-06-08 14:18:56.187500,14.0,23.0,58.0,19144.0,2022-06-08 14:23:46,132.0,69.82,0.278333,32.27,14.0,23.0,58.0,30.63,1969,2032,2038,6297890
2022-06-08 14:18:56.218750,14.0,24.0,58.0,19144.0,2022-06-08 14:23:46,132.0,69.82,0.278333,32.27,14.0,24.0,58.0,24.63,1968,2032,2040,6297890
2022-06-08 14:18:56.250000,14.0,24.0,58.0,19144.0,2022-06-08 14:23:46,132.0,69.82,0.278333,32.27,14.0,24.0,58.0,19.98,1968,2033,2039,6298214
2022-06-08 14:18:56.281250,14.0,24.0,58.0,19144.0,2022-06-08 14:23:46,132.0,69.82,0.278333,32.27,14.0,24.0,58.0,15.61,1969,2032,2041,6298214
2022-06-08 14:18:56.312500,14.0,24.0,58.0,19144.0,2022-06-08 14:23:46,132.0,69.82,0.278333,32.27,14.0,24.0,58.0,9.57,1967,2033,2038,6298754
2022-06-08 14:18:56.343750,14.0,24.0,58.0,19144.0,2022-06-08 14:23:46,132.0,69.82,0.278333,32.27,14.0,24.0,58.0,1.67,1968,2035,2041,6299347
2022-06-08 14:18:56.375000,14.0,24.0,58.0,19144.0,2022-06-08 14:23:46,132.0,69.82,0.278333,32.27,14.0,24.0,58.0,-6.11,1968,2034,2043,6299347
2022-06-08 14:18:56.406250,14.0,24.0,58.0,19144.0,2022-06-08 14:23:46,132.0,69.82,0.279614,32.27,14.0,24.0,58.0,-12.61,1968,2033,2039,6299024
2022-06-08 14:18:56.437500,14.0,24.0,58.0,19144.0,2022-06-08 14:23:46,132.0,69.82,0.279614,32.27,14.0,24.0,58.0,-19.3,1967,2033,2039,6299293
2022-06-08 14:18:56.468750,14.0,24.0,58.0,19144.0,2022-06-08 14:23:46,132.0,69.82,0.279614,32.27,14.0,24.0,58.0,-28.25,1967,2032,2041,6299347
2022-06-08 14:18:56.500000,14.0,24.0,58.0,19144.0,2022-06-08 14:23:46,132.0,69.82,0.279614,32.27,14.0,24.0,58.0,-39.49,1969,2033,2042,6299347
2022-06-08 14:18:56.531250,14.0,24.0,58.0,19144.0,2022-06-08 14:23:46,132.0,69.62,0.279614,32.27,14.0,24.0,58.0,-49.04,1967,2033,2041,6299077
2022-06-08 14:18:56.562500,14.0,24.0,58.0,19144.0,2022-06-08 14:23:46,132.0,69.62,0.279614,32.27,14.0,24.0,58.0,-48.85,1968,2036,2042,6299185
2022-06-08 14:18:56.593750,14.0,23.0,58.0,19144.0,2022-06-08 14:23:46,132.0,69.62,0.279614,32.27,14.0,23.0,58.0,-34.24,1968,2033,2040,6298646
2022-06-08 14:18:56.625000,14.0,24.0,58.0,19144.0,2022-06-08 14:23:46,132.0,69.62,0.279614,32.27,14.0,24.0,58.0,-11.92,1968,2033,2043,6298322
2022-06-08 14:18:56.656250,14.0,24.0,58.0,19144.0,2022-06-08 14:23:46,132.0,69.62,0.277051,32.27,14.0,24.0,58.0,6.21,1968,2032,2042,6298322
2022-06-08 14:18:56.687500,14.0,24.0,58.0,19144.0,2022-06-08 14:23:46,132.0,69.62,0.277051,32.27,14.0,24.0,58.0,16.47,1968,2032,2041,6298483
2022-06-08 14:18:56.718750,14.0,24.0,58.0,19144.0,2022-06-08 14:23:46,132.0,69.62,0.277051,32.27,14.0,24.0,58.0,22.86,1968,2034,2042,6298430
2022-06-08 14:18:56.750000,14.0,24.0,58.0,19144.0,2022-06-08 14:23:46,132.0,69.62,0.277051,32.27,14.0,24.0,58.0,27.43,1968,2033,2043,6298052
2022-06-08 14:18:56.781250,14.0,24.0,58.0,19144.0,2022-06-08 14:23:46,132.0,69.62,0.277051,32.27,14.0,24.0,58.0,29.47,1968,2032,2042,6297728
2022-06-08 14:18:56.812500,14.0,24.0,58.0,19144.0,2022-06-08 14:23:46,132.0,69.62,0.277051,32.27,14.0,24.0,58.0,30.52,1968,2032,2042,6297728
2022-06-08 14:18:56.843750,14.0,23.0,58.0,19144.0,2022-06-08 14:23:46,132.0,69.62,0.277051,32.27,14.0,23.0,58.0,33.09,1968,2034,2038,6298592
2022-06-08 14:18:56.875000,14.0,24.0,58.0,19144.0,2022-06-08 14:23:46,132.0,69.62,0.277051,32.27,14.0,24.0,58.0,36.33,1968,2033,2040,6297512
2022-06-08 14:18:56.906250,14.0,24.0,58.0,19144.0,2022-06-08 14:23:46,132.0,69.62,0.277051,32.27,14.0,24.0,58.0,37.56,1968,2033,2040,6296433
2022-06-08 14:18:56.937500,14.0,24.0,58.0,19144.0,2022-06-08 14:23:46,132.0,69.62,0.277051,32.27,14.0,24.0,58.0,36.94,1969,2035,2042,6296433
2022-06-08 14:18:56.968750,14.0,24.0,58.0,19144.0,2022-06-08 14:23:46,132.0,69.62,0.277051,32.27,14.0,24.0,58.0,36.32,1968,2032,2044,6295785
2022-06-08 14:18:57.000000,14.0,24.0,58.0,19144.0,2022-06-08 14:23:46,132.0,69.62,0.277051,32.27,14.0,24.0,58.0,35.07,1969,2033,2039,6295138
2022-06-08 14:18:57.031250,14.0,24.0,58.0,19144.0,2022-06-08 14:23:46,132.0,69.62,0.277051,32.27,14.0,24.0,58.0,30.63,1968,2032,2044,6296379
2022-06-08 14:18:57.062500,14.0,23.0,58.0,19144.0,2022-06-08 14:23:46,132.0,69.62,0.277051,32.27,14.0,23.0,58.0,23.41,1968,2032,2042,6296541
2022-06-08 14:18:57.093750,14.0,24.0,58.0,19144.0,2022-06-08 14:23:46,132.0,69.62,0.277051,32.27,14.0,24.0,58.0,17.05,1967,2033,2043,6296541
2022-06-08 14:18:57.125000,14.0,24.0,58.0,19144.0,2022-06-08 14:23:46,132.0,69.62,0.277051,32.27,14.0,24.0,58.0,13.38,1967,2032,2043,6298538
2022-06-08 14:18:57.156250,14.0,23.0,58.0,19144.0,2022-06-08 14:23:46,132.0,69.62,0.278333,32.27,14.0,23.0,58.0,10.45,1967,2032,2042,6300265
2022-06-08 14:18:57.187500,14.0,24.0,58.0,19144.0,2022-06-08 14:23:46,132.0,69.62,0.278333,32.27,14.0,24.0,58.0,5.76,1967,2034,2039,6301398
2022-06-08 14:18:57.218750,14.0,24.0,58.0,19144.0,2022-06-08 14:23:46,132.0,69.62,0.278333,32.27,14.0,24.0,58.0,-0.48,1968,2035,2041,6301398
2022-06-08 14:18:57.250000,14.0,24.0,58.0,19144.0,2022-06-08 14:23:46,132.0,69.62,0.278333,32.27,14.0,24.0,58.0,-6.35,1968,2035,2041,6303179
2022-06-08 14:18:57.281250,14.0,24.0,58.0,19144.0,2022-06-08 14:23:46,132.0,69.62,0.278333,32.27,14.0,24.0,58.0,-11.06,1968,2033,2044,6305176
2022-06-08 14:18:57.312500,14.0,24.0,58.0,19144.0,2022-06-08 14:23:46,132.0,69.62,0.278333,32.27,14.0,24.0,58.0,-16.03,1968,2034,2043,6306795
2022-06-08 14:18:57.343750,14.0,23.0,58.0,19144.0,2022-06-08 14:23:46,132.0,69.62,0.278333,32.27,14.0,23.0,58.0,-23.63,1968,2033,2042,6309224
2022-06-08 14:18:57.375000,14.0,24.0,58.0,19144.0,2022-06-08 14:23:46,132.0,69.62,0.278333,32.27,14.0,24.0,58.0,-33.78,1969,2032,2043,6309224
2022-06-08 14:18:57.406250,14.0,24.0,58.0,19144.0,2022-06-08 14:23:46,132.0,69.62,0.279614,32.27,14.0,24.0,58.0,-40.55,1968,2034,2041,6309925
2022-06-08 14:18:57.437500,14.0,24.0,58.0,19144.0,2022-06-08 14:23:46,132.0,69.62,0.279614,32.27,14.0,24.0,58.0,-35.38,1968,2032,2041,6311652
2022-06-08 14:18:57.468750,14.0,24.0,58.0,19144.0,2022-06-08 14:23:46,132.0,69.62,0.279614,32.27,14.0,24.0,58.0,-17.13,1968,2035,2039,6313055
2022-06-08 14:18:57.500000,14.0,23.0,58.0,19144.0,2022-06-08 14:23:46,132.0,69.62,0.279614,32.27,14.0,23.0,58.0,4.26,1968,2033,2043,6313055
2022-06-08 14:18:57.531250,14.0,24.0,58.0,19144.0,2022-06-08 14:23:46,132.0,69.47,0.279614,32.27,14.0,24.0,58.0,18.02,1968,2032,2043,6313379
2022-06-08 14:18:57.562500,14.0,24.0,58.0,19144.0,2022-06-08 14:23:46,132.0,69.47,0.279614,32.27,14.0,24.0,58.0,22.58,1968,2034,2043,6314566
2022-06-08 14:18:57.593750,14.0,24.0,58.0,19144.0,2022-06-08 14:23:46,132.0,69.47,0.279614,32.27,14.0,24.0,58.0,22.47,1967,2034,2042,6316347
2022-06-08 14:18:57.625000,14.0,24.0,58.0,19144.0,2022-06-08 14:23:46,132.0,69.47,0.279614,32.27,14.0,24.0,58.0,20.68,1967,2032,2043,6317103
2022-06-08 14:18:57.656250,14.0,24.0,58.0,19144.0,2022-06-08 14:23:46,132.0,69.47,0.277051,32.27,14.0,24.0,58.0,18.54,1967,2035,2043,6317103
2022-06-08 14:18:57.687500,14.0,24.0,58.0,19144.0,2022-06-08 14:23:46,132.0,69.47,0.277051,32.27,14.0,24.0,58.0,18.12,1968,2033,2040,6317265
2022-06-08 14:18:57.718750,14.0,24.0,58.0,19144.0,2022-06-08 14:23:46,132.0,69.47,0.277051,32.27,14.0,24.0,58.0,20.34,1968,2033,2041,6319478
2022-06-08 14:18:57.750000,14.0,24.0,58.0,19144.0,2022-06-08 14:23:46,132.0,69.47,0.277051,32.27,14.0,24.0,58.0,23.36,1968,2032,2044,6319370
2022-06-08 14:18:57.781250,14.0,24.0,58.0,19144.0,2022-06-08 14:23:46,132.0,69.47,0.277051,32.27,14.0,24.0,58.0,25.73,1969,2035,2044,6319801
2022-06-08 14:18:57.812500,14.0,24.0,58.0,19144.0,2022-06-08 14:23:46,132.0,69.47,0.277051,32.27,14.0,24.0,58.0,28.45,1967,2034,2041,6319801
2022-06-08 14:18:57.843750,14.0,24.0,58.0,19144.0,2022-06-08 14:23:46,132.0,69.47,0.277051,32.27,14.0,24.0,58.0,31.63,1967,2032,2043,6321475
2022-06-08 14:18:57.875000,14.0,24.0,58.0,19144.0,2022-06-08 14:23:46,132.0,69.47,0.277051,32.27,14.0,24.0,58.0,32.28,1967,2036,2040,6322122
2022-06-08 14:18:57.906250,14.0,24.0,58.0,19144.0,2022-06-08 14:23:46,132.0,69.47,0.277051,32.25,14.0,24.0,58.0,27.83,1967,2033,2043,6323741
2022-06-08 14:18:57.937500,14.0,24.0,58.0,19144.0,2022-06-08 14:23:46,132.0,69.47,0.277051,32.25,14.0,24.0,58.0,19.53,1968,2033,2041,6323741
2022-06-08 14:18:57.968750,14.0,24.0,58.0,19144.0,2022-06-08 14:23:46,132.0,69.47,0.277051,32.25,14.0,24.0,58.0,10.98,1966,2036,2044,6324443
2022-06-08 14:18:58.000000,14.0,24.0,58.0,19144.0,2022-06-08 14:23:46,132.0,69.47,0.277051,32.25,14.0,24.0,58.0,4.24,1968,2033,2045,6325576
2022-06-08 14:18:58.031250,14.0,24.0,58.0,19144.0,2022-06-08 14:23:46,132.0,69.47,0.277051,32.25,14.0,24.0,58.0,-1.38,1967,2032,2044,6325846
2022-06-08 14:18:58.062500,14.0,24.0,58.0,19144.0,2022-06-08 14:23:46,132.0,69.47,0.277051,32.25,14.0,24.0,58.0,-7.24,1968,2033,2043,6326440
2022-06-08 14:18:58.093750,14.0,24.0,58.0,19144.0,2022-06-08 14:23:46,132.0,69.47,0.277051,32.25,14.0,24.0,58.0,-12.96,1968,2032,2040,6326440
2022-06-08 14:18:58.125000,14.0,24.0,58.0,19144.0,2022-06-08 14:23:46,132.0,69.47,0.277051,32.25,14.0,24.0,58.0,-17.73,1968,2034,2042,6327087
2022-06-08 14:18:58.156250,14.0,24.0,58.0,19144.0,2022-06-08 14:23:46,132.0,69.47,0.27577,32.25,14.0,24.0,58.0,-22.48,1967,2034,2041,6326170
2022-06-08 14:18:58.187500,14.0,24.0,58.0,19144.0,2022-06-08 14:23:46,132.0,69.47,0.27577,32.25,14.0,24.0,58.0,-29.08,1967,2033,2044,6326332
2022-06-08 14:18:58.218750,14.0,24.0,58.0,19144.0,2022-06-08 14:23:46,132.0,69.47,0.27577,32.25,14.0,24.0,58.0,-39.0,1969,2033,2041,6326332
2022-06-08 14:18:58.250000,14.0,24.0,58.0,19144.0,2022-06-08 14:23:46,132.0,69.47,0.27577,32.25,14.0,24.0,58.0,-51.41,1968,2032,2042,6327195
2022-06-08 14:18:58.281250,14.0,24.0,58.0,19144.0,2022-06-08 14:23:46,132.0,69.47,0.27577,32.25,14.0,24.0,58.0,-60.21,1969,2033,2043,6326979
2022-06-08 14:18:58.312500,14.0,24.0,58.0,19144.0,2022-06-08 14:23:46,132.0,69.47,0.27577,32.25,14.0,24.0,58.0,-56.46,1968,2033,2042,6326764
2022-06-08 14:18:58.343750,14.0,24.0,58.0,19144.0,2022-06-08 14:23:46,132.0,69.47,0.27577,32.25,14.0,24.0,58.0,-39.01,1969,2034,2044,6326332
2022-06-08 14:18:58.375000,13.0,24.0,58.0,19144.0,2022-06-08 14:23:46,132.0,69.47,0.27577,32.25,13.0,24.0,58.0,-18.13,1969,2034,2043,6326332
2022-06-08 14:18:58.406250,14.0,24.0,58.0,19144.0,2022-06-08 14:23:46,132.0,69.47,0.280895,32.25,14.0,24.0,58.0,-3.8,1968,2032,2041,6325738
2022-06-08 14:18:58.437500,14.0,25.0,58.0,19144.0,2022-06-08 14:23:46,132.0,69.47,0.280895,32.25,14.0,25.0,58.0,3.89,1968,2032,2042,6323849
2022-06-08 14:18:58.468750,14.0,24.0,58.0,19144.0,2022-06-08 14:23:46,132.0,69.47,0.280895,32.25,14.0,24.0,58.0,9.41,1968,2033,2042,6322122
2022-06-08 14:18:58.500000,14.0,24.0,58.0,19144.0,2022-06-08 14:23:46,132.0,69.47,0.280895,32.25,14.0,24.0,58.0,14.02,1968,2032,2038,6322122
2022-06-08 14:18:58.531250,14.0,24.0,58.0,19144.0,2022-06-08 14:23:46,132.0,69.37,0.280895,32.25,14.0,24.0,58.0,16.88,1968,2034,2039,6320395
2022-06-08 14:18:58.562500,14.0,24.0,58.0,19144.0,2022-06-08 14:23:46,132.0,69.37,0.280895,32.25,14.0,24.0,58.0,18.81,1967,2034,2043,6317481
2022-06-08 14:18:58.593750,14.0,24.0,58.0,19144.0,2022-06-08 14:23:46,132.0,69.37,0.280895,32.25,14.0,24.0,58.0,21.18,1969,2032,2046,6315754
2022-06-08 14:18:58.625000,11.0,26.0,57.0,19144.0,2022-06-08 14:23:46,132.0,69.37,0.280895,32.25,11.0,26.0,57.0,23.37,1967,2032,2043,6313163
2022-06-08 14:18:58.656250,14.0,24.0,58.0,19144.0,2022-06-08 14:23:46,132.0,69.37,0.279614,32.25,14.0,24.0,58.0,23.94,1967,2034,2041,6313163
2022-06-08 14:18:58.687500,15.0,24.0,58.0,19144.0,2022-06-08 14:23:46,132.0,69.37,0.279614,32.25,15.0,24.0,58.0,23.33,1967,2032,2044,6312516
2022-06-08 14:18:58.718750,14.0,24.0,58.0,19144.0,2022-06-08 14:23:46,132.0,69.37,0.279614,32.25,14.0,24.0,58.0,22.88,1965,2033,2045,6311706
2022-06-08 14:18:58.750000,13.0,25.0,58.0,19144.0,2022-06-08 14:23:46,132.0,69.37,0.279614,32.25,13.0,25.0,58.0,21.67,1967,2032,2040,6310465
2022-06-08 14:18:58.781250,13.0,25.0,58.0,19144.0,2022-06-08 14:23:46,132.0,69.37,0.279614,32.25,13.0,25.0,58.0,17.76,1967,2033,2041,6309601
2022-06-08 14:18:58.812500,14.0,24.0,58.0,19144.0,2022-06-08 14:23:46,132.0,69.37,0.279614,32.25,14.0,24.0,58.0,11.82,1967,2033,2043,6309601
2022-06-08 14:18:58.843750,14.0,24.0,58.0,19144.0,2022-06-08 14:23:46,132.0,69.37,0.279614,32.25,14.0,24.0,58.0,6.37,1967,2032,2044,6308522
2022-06-08 14:18:58.875000,13.0,24.0,58.0,19144.0,2022-06-08 14:23:46,132.0,69.37,0.279614,32.25,13.0,24.0,58.0,2.21,1969,2032,2041,6308090
2022-06-08 14:18:58.906250,13.0,25.0,58.0,19144.0,2022-06-08 14:23:46,132.0,69.37,0.279614,32.25,13.0,25.0,58.0,-1.69,1968,2033,2040,6307173
2022-06-08 14:18:58.937500,13.0,24.0,58.0,19144.0,2022-06-08 14:23:46,132.0,69.37,0.279614,32.25,13.0,24.0,58.0,-6.67,1968,2032,2043,6307173
2022-06-08 14:18:58.968750,14.0,24.0,58.0,19144.0,2022-06-08 14:23:46,132.0,69.37,0.279614,32.25,14.0,24.0,58.0,-13.39,1968,2034,2041,6306795
2022-06-08 14:18:59.000000,14.0,24.0,58.0,19144.0,2022-06-08 14:23:46,132.0,69.37,0.279614,32.25,14.0,24.0,58.0,-20.71,1968,2032,2039,6306255
2022-06-08 14:18:59.031250,13.0,25.0,58.0,19144.0,2022-06-08 14:23:46,132.0,69.37,0.279614,32.25,13.0,25.0,58.0,-26.64,1968,2032,2039,6305716
2022-06-08 14:18:59.062500,13.0,24.0,58.0,19144.0,2022-06-08 14:23:46,132.0,69.37,0.279614,32.25,13.0,24.0,58.0,-31.16,1968,2033,2042,6305014
2022-06-08 14:18:59.093750,14.0,24.0,58.0,19144.0,2022-06-08 14:23:46,132.0,69.37,0.279614,32.25,14.0,24.0,58.0,-36.48,1967,2032,2043,6305014
2022-06-08 14:18:59.125000,13.0,24.0,58.0,19144.0,2022-06-08 14:23:46,132.0,69.37,0.279614,32.25,13.0,24.0,58.0,-44.35,1967,2032,2043,6305014
2022-06-08 14:18:59.156250,14.0,24.0,58.0,19144.0,2022-06-08 14:23:46,132.0,69.37,0.279614,32.25,14.0,24.0,58.0,-52.58,1967,2032,2044,6304906
2022-06-08 14:18:59.187500,14.0,24.0,58.0,19144.0,2022-06-08 14:23:46,132.0,69.37,0.279614,32.25,14.0,24.0,58.0,-54.16,1967,2034,2040,6303719
2022-06-08 14:18:59.218750,14.0,24.0,58.0,19144.0,2022-06-08 14:23:46,132.0,69.37,0.279614,32.25,14.0,24.0,58.0,-43.03,1967,2032,2042,6303719
2022-06-08 14:18:59.250000,14.0,24.0,58.0,19144.0,2022-06-08 14:23:46,132.0,69.37,0.279614,32.25,14.0,24.0,58.0,-22.24,1967,2032,2038,6303773
2022-06-08 14:18:59.281250,14.0,24.0,58.0,19144.0,2022-06-08 14:23:46,132.0,69.37,0.279614,32.25,14.0,24.0,58.0,-1.78,1967,2033,2038,6302963
2022-06-08 14:18:59.312500,14.0,24.0,58.0,19144.0,2022-06-08 14:23:46,132.0,69.37,0.279614,32.25,14.0,24.0,58.0,12.14,1967,2032,2039,6302153
2022-06-08 14:18:59.343750,14.0,24.0,58.0,19144.0,2022-06-08 14:23:46,132.0,69.37,0.279614,32.25,14.0,24.0,58.0,20.73,1968,2033,2042,6301344
2022-06-08 14:18:59.375000,14.0,24.0,58.0,19144.0,2022-06-08 14:23:46,132.0,69.37,0.279614,32.25,14.0,24.0,58.0,27.32,1966,2033,2042,6301344
2022-06-08 14:18:59.406250,14.0,24.0,58.0,19144.0,2022-06-08 14:23:46,132.0,69.37,0.277051,32.25,14.0,24.0,58.0,32.64,1968,2033,2044,6299887
2022-06-08 14:18:59.437500,14.0,24.0,58.0,19144.0,2022-06-08 14:23:46,132.0,69.37,0.277051,32.25,14.0,24.0,58.0,36.23,1968,2033,2045,6299293
2022-06-08 14:18:59.468750,13.0,24.0,58.0,19144.0,2022-06-08 14:23:46,132.0,69.37,0.277051,32.25,13.0,24.0,58.0,38.63,1968,2033,2047,6299077
2022-06-08 14:18:59.500000,13.0,24.0,58.0,19144.0,2022-06-08 14:23:46,132.0,69.37,0.277051,32.25,13.0,24.0,58.0,41.42,1968,2033,2044,6299077
2022-06-08 14:18:59.531250,14.0,24.0,58.0,19144.0,2022-06-08 14:23:46,132.0,69.25,0.277051,32.25,14.0,24.0,58.0,45.33,1968,2033,2039,6298808
2022-06-08 14:18:59.562500,14.0,24.0,58.0,19144.0,2022-06-08 14:23:46,132.0,69.25,0.277051,32.25,14.0,24.0,58.0,49.81,1968,2033,2042,6298699
2022-06-08 14:18:59.593750,13.0,24.0,58.0,19144.0,2022-06-08 14:23:46,132.0,69.25,0.277051,32.25,13.0,24.0,58.0,54.44,1968,2034,2039,6298861
2022-06-08 14:18:59.625000,13.0,24.0,58.0,19144.0,2022-06-08 14:23:46,132.0,69.25,0.277051,32.25,13.0,24.0,58.0,58.78,1968,2033,2039,6299617
2022-06-08 14:18:59.656250,14.0,24.0,58.0,19144.0,2022-06-08 14:23:46,132.0,69.25,0.278333,32.25,14.0,24.0,58.0,61.21,1968,2032,2039,6299617
2022-06-08 14:18:59.687500,14.0,24.0,58.0,19144.0,2022-06-08 14:23:46,132.0,69.25,0.278333,32.25,14.0,24.0,58.0,59.75,1968,2033,2043,6299725
2022-06-08 14:18:59.718750,14.0,24.0,58.0,19144.0,2022-06-08 14:23:46,132.0,69.25,0.278333,32.25,14.0,24.0,58.0,54.27,1968,2032,2044,6299887
2022-06-08 14:18:59.750000,14.0,24.0,58.0,19144.0,2022-06-08 14:23:46,132.0,69.25,0.278333,32.25,14.0,24.0,58.0,46.8,1968,2033,2042,6299347
2022-06-08 14:18:59.781250,14.0,24.0,58.0,19144.0,2022-06-08 14:23:46,132.0,69.25,0.278333,32.25,14.0,24.0,58.0,39.47,1968,2032,2040,6299401
2022-06-08 14:18:59.812500,14.0,25.0,58.0,19144.0,2022-06-08 14:23:46,132.0,69.25,0.278333,32.25,14.0,25.0,58.0,33.44,1969,2033,2043,6299401
2022-06-08 14:18:59.843750,13.0,24.0,58.0,19144.0,2022-06-08 14:23:46,132.0,69.25,0.278333,32.25,13.0,24.0,58.0,28.79,1968,2035,2040,6299563
2022-06-08 14:18:59.875000,13.0,24.0,58.0,19144.0,2022-06-08 14:23:46,132.0,69.25,0.278333,32.25,13.0,24.0,58.0,24.44,1968,2032,2046,6299455
2022-06-08 14:18:59.906250,14.0,24.0,58.0,19144.0,2022-06-08 14:23:46,132.0,69.25,0.279614,32.25,14.0,24.0,58.0,19.21,1968,2033,2039,6300211
2022-06-08 14:18:59.937500,13.0,24.0,58.0,19144.0,2022-06-08 14:23:46,132.0,69.25,0.279614,32.25,13.0,24.0,58.0,13.1,1968,2032,2039,6300211
2022-06-08 14:18:59.968750,13.0,24.0,58.0,19144.0,2022-06-08 14:23:46,132.0,69.25,0.279614,32.25,13.0,24.0,58.0,6.46,1968,2034,2041,6300643
2022-06-08 14:19:00.000000,13.0,24.0,58.0,19144.0,2022-06-08 14:23:46,132.0,69.25,0.279614,32.25,13.0,24.0,58.0,-1.19,1968,2033,2037,6300912
2022-06-08 14:19:00.031250,13.0,24.0,58.0,19144.0,2022-06-08 14:23:46,132.0,69.25,0.279614,32.25,13.0,24.0,58.0,-10.63,1969,2033,2040,6301182
2022-06-08 14:19:00.062500,13.0,24.0,58.0,19144.0,2022-06-08 14:23:46,132.0,69.25,0.279614,32.25,13.0,24.0,58.0,-22.14,1967,2036,2041,6300966
2022-06-08 14:19:00.093750,14.0,24.0,58.0,19144.0,2022-06-08 14:23:46,132.0,69.25,0.279614,32.25,14.0,24.0,58.0,-33.15,1967,2033,2043,6300966
2022-06-08 14:19:00.125000,13.0,24.0,58.0,19144.0,2022-06-08 14:23:46,132.0,69.25,0.279614,32.25,13.0,24.0,58.0,-37.25,1968,2033,2047,6299779
2022-06-08 14:19:00.156250,13.0,24.0,58.0,19144.0,2022-06-08 14:23:46,132.0,69.25,0.278333,32.25,13.0,24.0,58.0,-30.22,1968,2034,2040,6298699
2022-06-08 14:19:00.187500,13.0,24.0,58.0,19144.0,2022-06-08 14:23:46,132.0,69.25,0.278333,32.25,13.0,24.0,58.0,-16.53,1968,2033,2038,6297836
2022-06-08 14:19:00.218750,13.0,24.0,58.0,19144.0,2022-06-08 14:23:46,132.0,69.25,0.278333,32.25,13.0,24.0,58.0,-4.73,1970,2033,2039,6297836
2022-06-08 14:19:00.250000,14.0,24.0,58.0,19144.0,2022-06-08 14:23:46,132.0,69.25,0.278333,32.25,14.0,24.0,58.0,2.38,1968,2036,2041,6297836
2022-06-08 14:19:00.281250,12.0,24.0,58.0,19144.0,2022-06-08 14:23:46,132.0,69.25,0.278333,32.25,12.0,24.0,58.0,8.04,1968,2033,2044,6297998
2022-06-08 14:19:00.312500,12.0,24.0,58.0,19144.0,2022-06-08 14:23:46,132.0,69.25,0.278333,32.25,12.0,24.0,58.0,14.56,1968,2032,2044,6299077
2022-06-08 14:19:00.343750,14.0,24.0,58.0,19144.0,2022-06-08 14:23:46,132.0,69.25,0.278333,32.25,14.0,24.0,58.0,21.3,1968,2033,2045,6300318
2022-06-08 14:19:00.375000,13.0,24.0,58.0,19144.0,2022-06-08 14:23:46,132.0,69.25,0.278333,32.25,13.0,24.0,58.0,28.19,1969,2033,2042,6300318
2022-06-08 14:19:00.406250,14.0,24.0,58.0,19144.0,2022-06-08 14:23:46,132.0,69.25,0.278333,32.25,14.0,24.0,58.0,35.4,1968,2032,2043,6301722
2022-06-08 14:19:00.437500,13.0,24.0,58.0,19144.0,2022-06-08 14:23:46,132.0,69.25,0.278333,32.25,13.0,24.0,58.0,39.43,1968,2034,2045,6303935
2022-06-08 14:19:00.468750,14.0,24.0,58.0,19144.0,2022-06-08 14:23:46,132.0,69.25,0.278333,32.25,14.0,24.0,58.0,36.39,1968,2034,2046,6306147
2022-06-08 14:19:00.500000,14.0,24.0,58.0,19144.0,2022-06-08 14:23:46,132.0,69.25,0.278333,32.25,14.0,24.0,58.0,28.53,1968,2034,2045,6306147
2022-06-08 14:19:00.531250,13.0,24.0,58.0,19144.0,2022-06-08 14:23:46,132.0,69.13,0.278333,32.25,13.0,24.0,58.0,21.71,1969,2033,2042,6307767
2022-06-08 14:19:00.562500,14.0,24.0,58.0,19144.0,2022-06-08 14:23:46,132.0,69.13,0.278333,32.25,14.0,24.0,58.0,17.54,1968,2032,2040,6308090
2022-06-08 14:19:00.593750,14.0,24.0,58.0,19144.0,2022-06-08 14:23:46,132.0,69.13,0.278333,32.25,14.0,24.0,58.0,13.62,1968,2032,2040,6310087
2022-06-08 14:19:00.625000,14.0,24.0,58.0,19144.0,2022-06-08 14:23:46,132.0,69.13,0.278333,32.25,14.0,24.0,58.0,9.17,1969,2033,2039,6311058
2022-06-08 14:19:00.656250,13.0,24.0,58.0,19144.0,2022-06-08 14:23:46,132.0,69.13,0.280895,32.25,13.0,24.0,58.0,5.48,1968,2032,2043,6311058
2022-06-08 14:19:00.687500,14.0,24.0,58.0,19144.0,2022-06-08 14:23:46,132.0,69.13,0.280895,32.25,14.0,24.0,58.0,1.49,1970,2033,2040,6312462
2022-06-08 14:19:00.718750,14.0,24.0,58.0,19144.0,2022-06-08 14:23:46,132.0,69.13,0.280895,32.25,14.0,24.0,58.0,-6.69,1968,2033,2044,6313271
2022-06-08 14:19:00.750000,13.0,24.0,57.0,19144.0,2022-06-08 14:23:46,132.0,69.13,0.280895,32.25,13.0,24.0,57.0,-20.27,1968,2033,2043,6315214
2022-06-08 14:19:00.781250,13.0,25.0,58.0,19144.0,2022-06-08 14:23:46,132.0,69.13,0.280895,32.25,13.0,25.0,58.0,-35.09,1968,2033,2043,6316401
2022-06-08 14:19:00.812500,15.0,24.0,58.0,19144.0,2022-06-08 14:23:46,132.0,69.13,0.280895,32.25,15.0,24.0,58.0,-46.26,1967,2035,2043,6316401
2022-06-08 14:19:00.843750,14.0,24.0,58.0,19144.0,2022-06-08 14:23:46,132.0,69.13,0.280895,32.25,14.0,24.0,58.0,-52.98,1969,2035,2043,6317103
2022-06-08 14:19:00.875000,13.0,24.0,58.0,19144.0,2022-06-08 14:23:46,132.0,69.13,0.280895,32.25,13.0,24.0,58.0,-57.84,1969,2033,2040,6318182
2022-06-08 14:19:00.906250,14.0,24.0,58.0,19144.0,2022-06-08 14:23:46,132.0,69.13,0.278333,32.27,14.0,24.0,58.0,-63.69,1968,2032,2040,6319208
2022-06-08 14:19:00.937500,14.0,24.0,58.0,19144.0,2022-06-08 14:23:46,132.0,69.13,0.278333,32.27,14.0,24.0,58.0,-71.48,1968,2032,2042,6319208
2022-06-08 14:19:00.968750,13.0,24.0,58.0,19144.0,2022-06-08 14:23:46,132.0,69.13,0.278333,32.27,13.0,24.0,58.0,-77.77,1968,2032,2042,6318830
2022-06-08 14:19:01.000000,15.0,24.0,58.0,19144.0,2022-06-08 14:23:46,132.0,69.13,0.278333,32.27,15.0,24.0,58.0,-76.33,1970,2034,2038,6319478
2022-06-08 14:19:01.031250,15.0,24.0,58.0,19144.0,2022-06-08 14:23:46,132.0,69.13,0.278333,32.27,15.0,24.0,58.0,-66.28,1969,2033,2040,6320395
2022-06-08 14:19:01.062500,14.0,24.0,58.0,19144.0,2022-06-08 14:23:46,132.0,69.13,0.278333,32.27,14.0,24.0,58.0,-55.07,1968,2032,2042,6320611
2022-06-08 14:19:01.093750,14.0,24.0,58.0,19144.0,2022-06-08 14:23:46,132.0,69.13,0.278333,32.27,14.0,24.0,58.0,-49.48,1968,2034,2046,6320611
2022-06-08 14:19:01.125000,14.0,24.0,58.0,19144.0,2022-06-08 14:23:46,132.0,69.13,0.278333,32.27,14.0,24.0,58.0,-48.08,1968,2033,2043,6320287
2022-06-08 14:19:01.156250,14.0,24.0,58.0,19144.0,2022-06-08 14:23:46,132.0,69.13,0.277051,32.27,14.0,24.0,58.0,-45.52,1968,2033,2041,6322014
2022-06-08 14:19:01.187500,14.0,25.0,58.0,19144.0,2022-06-08 14:23:46,132.0,69.13,0.277051,32.27,14.0,25.0,58.0,-39.73,1968,2033,2041,6322230
2022-06-08 14:19:01.218750,14.0,24.0,58.0,19144.0,2022-06-08 14:23:46,132.0,69.13,0.277051,32.27,14.0,24.0,58.0,-32.35,1968,2032,2041,6322230
2022-06-08 14:19:01.250000,14.0,24.0,58.0,19144.0,2022-06-08 14:23:46,132.0,69.13,0.277051,32.27,14.0,24.0,58.0,-24.76,1969,2034,2039,6322446
2022-06-08 14:19:01.281250,14.0,24.0,58.0,19144.0,2022-06-08 14:23:46,132.0,69.13,0.277051,32.27,14.0,24.0,58.0,-16.98,1968,2035,2046,6323471
2022-06-08 14:19:01.312500,14.0,24.0,58.0,19144.0,2022-06-08 14:23:46,132.0,69.13,0.277051,32.27,14.0,24.0,58.0,-9.43,1968,2033,2045,6323094
2022-06-08 14:19:01.343750,13.0,24.0,58.0,19144.0,2022-06-08 14:23:46,132.0,69.13,0.277051,32.27,13.0,24.0,58.0,-3.29,1968,2033,2043,6323741
2022-06-08 14:19:01.375000,14.0,24.0,58.0,19144.0,2022-06-08 14:23:46,132.0,69.13,0.277051,32.27,14.0,24.0,58.0,1.14,1968,2033,2041,6323741
2022-06-08 14:19:01.406250,13.0,24.0,58.0,19144.0,2022-06-08 14:23:46,132.0,69.13,0.278333,32.27,13.0,24.0,58.0,4.34,1969,2034,2043,6323364
2022-06-08 14:19:01.437500,13.0,24.0,58.0,19144.0,2022-06-08 14:23:46,132.0,69.13,0.278333,32.27,13.0,24.0,58.0,5.92,1968,2033,2042,6322824
2022-06-08 14:19:01.468750,13.0,24.0,58.0,19144.0,2022-06-08 14:23:46,132.0,69.13,0.278333,32.27,13.0,24.0,58.0,5.36,1967,2032,2040,6323364
2022-06-08 14:19:01.500000,14.0,24.0,58.0,19144.0,2022-06-08 14:23:46,132.0,69.13,0.278333,32.27,14.0,24.0,58.0,3.75,1968,2032,2040,6323364
2022-06-08 14:19:01.531250,14.0,24.0,58.0,19144.0,2022-06-08 14:23:46,132.0,69.0,0.278333,32.27,14.0,24.0,58.0,3.02,1968,2030,2044,6322230
2022-06-08 14:19:01.562500,13.0,24.0,58.0,19144.0,2022-06-08 14:23:46,132.0,69.0,0.278333,32.27,13.0,24.0,58.0,4.07,1966,2033,2044,6320503
2022-06-08 14:19:01.593750,14.0,24.0,58.0,19144.0,2022-06-08 14:23:46,132.0,69.0,0.278333,32.27,14.0,24.0,58.0,6.2,1967,2033,2043,6319748
2022-06-08 14:19:01.625000,14.0,24.0,58.0,19144.0,2022-06-08 14:23:46,132.0,69.0,0.278333,32.27,14.0,24.0,58.0,8.1,1968,2033,2040,6318776
2022-06-08 14:19:01.656250,13.0,24.0,58.0,19144.0,2022-06-08 14:23:46,132.0,69.0,0.278333,32.27,13.0,24.0,58.0,9.37,1968,2036,2042,6318776
2022-06-08 14:19:01.687500,13.0,25.0,58.0,19144.0,2022-06-08 14:23:46,132.0,69.0,0.278333,32.27,13.0,25.0,58.0,10.91,1967,2034,2044,6316833
2022-06-08 14:19:01.718750,13.0,24.0,58.0,19144.0,2022-06-08 14:23:46,132.0,69.0,0.278333,32.27,13.0,24.0,58.0,13.88,1967,2032,2044,6315754
2022-06-08 14:19:01.750000,14.0,24.0,58.0,19144.0,2022-06-08 14:23:46,132.0,69.0,0.278333,32.27,14.0,24.0,58.0,17.36,1967,2032,2045,6312947
2022-06-08 14:19:01.781250,14.0,24.0,58.0,19144.0,2022-06-08 14:23:46,132.0,69.0,0.278333,32.27,14.0,24.0,58.0,17.74,1967,2032,2042,6311167
2022-06-08 14:19:01.812500,13.0,24.0,58.0,19144.0,2022-06-08 14:23:46,132.0,69.0,0.278333,32.27,13.0,24.0,58.0,11.3,1967,2032,2045,6311167
2022-06-08 14:19:01.843750,14.0,24.0,58.0,19144.0,2022-06-08 14:23:46,132.0,69.0,0.278333,32.27,14.0,24.0,58.0,-0.59,1967,2033,2042,6310411
2022-06-08 14:19:01.875000,13.0,24.0,58.0,19144.0,2022-06-08 14:23:46,132.0,69.0,0.278333,32.27,13.0,24.0,58.0,-9.78,1967,2033,2042,6309332
2022-06-08 14:19:01.906250,13.0,24.0,58.0,19144.0,2022-06-08 14:23:46,132.0,69.0,0.278333,32.25,13.0,24.0,58.0,-8.29,1966,2033,2042,6308684
2022-06-08 14:19:01.937500,13.0,24.0,58.0,19144.0,2022-06-08 14:23:46,132.0,69.0,0.278333,32.25,13.0,24.0,58.0,2.14,1967,2033,2043,6308684
2022-06-08 14:19:01.968750,14.0,24.0,58.0,19144.0,2022-06-08 14:23:46,132.0,69.0,0.278333,32.25,14.0,24.0,58.0,11.48,1967,2033,2045,6307820
2022-06-08 14:19:02.000000,13.0,24.0,58.0,19144.0,2022-06-08 14:23:46,132.0,69.0,0.278333,32.25,13.0,24.0,58.0,13.15,1967,2031,2043,6306957
2022-06-08 14:19:02.031250,14.0,24.0,58.0,19144.0,2022-06-08 14:23:46,132.0,69.0,0.278333,32.25,14.0,24.0,58.0,9.8,1967,2034,2042,6306363
2022-06-08 14:19:02.062500,14.0,24.0,58.0,19144.0,2022-06-08 14:23:46,132.0,69.0,0.278333,32.25,14.0,24.0,58.0,6.5,1967,2032,2043,6305068
2022-06-08 14:19:02.093750,13.0,25.0,58.0,19144.0,2022-06-08 14:23:46,132.0,69.0,0.278333,32.25,13.0,25.0,58.0,4.15,1967,2032,2045,6305068
2022-06-08 14:19:02.125000,13.0,25.0,58.0,19144.0,2022-06-08 14:23:46,132.0,69.0,0.278333,32.25,13.0,25.0,58.0,1.03,1968,2032,2039,6304366
2022-06-08 14:19:02.156250,13.0,25.0,58.0,19144.0,2022-06-08 14:23:46,132.0,69.0,0.279614,32.25,13.0,25.0,58.0,-3.0,1970,2034,2043,6304582
2022-06-08 14:19:02.187500,13.0,24.0,58.0,19144.0,2022-06-08 14:23:46,132.0,69.0,0.279614,32.25,13.0,24.0,58.0,-6.47,1969,2032,2043,6303611
2022-06-08 14:19:02.218750,13.0,25.0,58.0,19144.0,2022-06-08 14:23:46,132.0,69.0,0.279614,32.25,13.0,25.0,58.0,-8.52,1967,2032,2044,6303611
2022-06-08 14:19:02.250000,13.0,24.0,58.0,19144.0,2022-06-08 14:23:46,132.0,69.0,0.279614,32.25,13.0,24.0,58.0,-9.56,1968,2033,2042,6303341
2022-06-08 14:19:02.281250,13.0,24.0,58.0,19144.0,2022-06-08 14:23:46,132.0,69.0,0.279614,32.25,13.0,24.0,58.0,-10.28,1967,2032,2042,6303341
2022-06-08 14:19:02.312500,12.0,25.0,58.0,19144.0,2022-06-08 14:23:46,132.0,69.0,0.279614,32.25,12.0,25.0,58.0,-11.71,1968,2032,2041,6302585
2022-06-08 14:19:02.343750,12.0,24.0,58.0,19144.0,2022-06-08 14:23:46,132.0,69.0,0.279614,32.25,12.0,24.0,58.0,-14.78,1968,2033,2042,6302801
2022-06-08 14:19:02.375000,14.0,25.0,58.0,19144.0,2022-06-08 14:23:46,132.0,69.0,0.279614,32.25,14.0,25.0,58.0,-18.48,1967,2032,2043,6302801
2022-06-08 14:19:02.406250,13.0,24.0,58.0,19144.0,2022-06-08 14:23:46,132.0,69.0,0.278333,32.25,13.0,24.0,58.0,-19.89,1967,2033,2041,6302478
2022-06-08 14:19:02.437500,13.0,24.0,58.0,19144.0,2022-06-08 14:23:46,132.0,69.0,0.278333,32.25,13.0,24.0,58.0,-17.77,1967,2034,2044,6301776
2022-06-08 14:19:02.468750,13.0,24.0,58.0,19144.0,2022-06-08 14:23:46,132.0,69.0,0.278333,32.25,13.0,24.0,58.0,-14.12,1967,2032,2043,6301020
2022-06-08 14:19:02.500000,13.0,24.0,58.0,19144.0,2022-06-08 14:23:46,132.0,69.0,0.278333,32.25,13.0,24.0,58.0,-11.17,1967,2033,2040,6301020
2022-06-08 14:19:02.531250,13.0,24.0,58.0,19144.0,2022-06-08 14:23:46,132.0,68.87,0.278333,32.25,13.0,24.0,58.0,-9.13,1967,2033,2043,6301020
2022-06-08 14:19:02.562500,13.0,24.0,58.0,19144.0,2022-06-08 14:23:46,132.0,68.87,0.278333,32.25,13.0,24.0,58.0,-7.95,1967,2032,2043,6300265
2022-06-08 14:19:02.593750,13.0,25.0,58.0,19144.0,2022-06-08 14:23:46,132.0,68.87,0.278333,32.25,13.0,25.0,58.0,-8.71,1966,2033,2042,6300157
2022-06-08 14:19:02.625000,13.0,24.0,58.0,19144.0,2022-06-08 14:23:46,132.0,68.87,0.278333,32.25,13.0,24.0,58.0,-11.64,1967,2032,2044,6299347
2022-06-08 14:19:02.656250,13.0,24.0,58.0,19144.0,2022-06-08 14:23:46,132.0,68.87,0.279614,32.25,13.0,24.0,58.0,-15.05,1967,2033,2044,6299347
2022-06-08 14:19:02.687500,13.0,24.0,58.0,19144.0,2022-06-08 14:23:46,132.0,68.87,0.279614,32.25,13.0,24.0,58.0,-17.91,1967,2033,2043,6300265
2022-06-08 14:19:02.718750,13.0,24.0,58.0,19144.0,2022-06-08 14:23:46,132.0,68.87,0.279614,32.25,13.0,24.0,58.0,-22.14,1967,2032,2045,6300157
2022-06-08 14:19:02.750000,13.0,24.0,58.0,19144.0,2022-06-08 14:23:46,132.0,68.87,0.279614,32.25,13.0,24.0,58.0,-30.09,1967,2035,2042,6299995
2022-06-08 14:19:02.781250,13.0,24.0,58.0,19144.0,2022-06-08 14:23:46,132.0,68.87,0.279614,32.25,13.0,24.0,58.0,-40.21,1967,2034,2041,6300049
2022-06-08 14:19:02.812500,13.0,24.0,58.0,19144.0,2022-06-08 14:23:46,132.0,68.87,0.279614,32.25,13.0,24.0,58.0,-45.44,1968,2035,2040,6300049
2022-06-08 14:19:02.843750,14.0,24.0,58.0,19144.0,2022-06-08 14:23:46,132.0,68.87,0.279614,32.25,14.0,24.0,58.0,-37.74,1968,2033,2041,6299995
2022-06-08 14:19:02.875000,13.0,24.0,58.0,19144.0,2022-06-08 14:23:46,132.0,68.87,0.279614,32.25,13.0,24.0,58.0,-18.05,1968,2033,2039,6299779
2022-06-08 14:19:02.906250,13.0,24.0,58.0,19144.0,2022-06-08 14:23:46,132.0,68.87,0.279614,32.27,13.0,24.0,58.0,2.22,1968,2034,2045,6301020
2022-06-08 14:19:02.937500,12.0,25.0,58.0,19144.0,2022-06-08 14:23:46,132.0,68.87,0.279614,32.27,12.0,25.0,58.0,14.29,1968,2032,2047,6301020
2022-06-08 14:19:02.968750,12.0,24.0,58.0,19144.0,2022-06-08 14:23:46,132.0,68.87,0.279614,32.27,12.0,24.0,58.0,20.67,1968,2033,2047,6301290
2022-06-08 14:19:03.000000,15.0,23.0,58.0,19144.0,2022-06-08 14:23:46,132.0,68.87,0.279614,32.27,15.0,23.0,58.0,27.15,1969,2034,2047,6301668
2022-06-08 14:19:03.031250,14.0,24.0,58.0,19144.0,2022-06-08 14:23:46,132.0,68.87,0.279614,32.27,14.0,24.0,58.0,33.56,1968,2038,2046,6302963
2022-06-08 14:19:03.062500,14.0,23.0,58.0,19144.0,2022-06-08 14:23:46,132.0,68.87,0.279614,32.27,14.0,23.0,58.0,37.18,1968,2034,2045,6303988
2022-06-08 14:19:03.093750,12.0,24.0,58.0,19144.0,2022-06-08 14:23:46,132.0,68.87,0.279614,32.27,12.0,24.0,58.0,37.87,1968,2035,2040,6303988
2022-06-08 14:19:03.125000,13.0,24.0,58.0,19144.0,2022-06-08 14:23:46,132.0,68.87,0.279614,32.27,13.0,24.0,58.0,36.69,1968,2032,2038,6305446
2022-06-08 14:19:03.156250,14.0,23.0,58.0,19144.0,2022-06-08 14:23:46,132.0,68.87,0.278333,32.27,14.0,23.0,58.0,33.96,1968,2032,2036,6305662
2022-06-08 14:19:03.187500,13.0,24.0,58.0,19144.0,2022-06-08 14:23:46,132.0,68.87,0.278333,32.27,13.0,24.0,58.0,30.41,1968,2031,2035,6305823
2022-06-08 14:19:03.218750,13.0,24.0,58.0,19144.0,2022-06-08 14:23:46,132.0,68.87,0.278333,32.27,13.0,24.0,58.0,27.59,1968,2031,2033,6305823
2022-06-08 14:19:03.250000,13.0,24.0,58.0,19144.0,2022-06-08 14:23:46,132.0,68.87,0.278333,32.27,13.0,24.0,58.0,25.57,1968,2032,2033,6305014
2022-06-08 14:19:03.281250,14.0,24.0,58.0,19144.0,2022-06-08 14:23:46,132.0,68.87,0.278333,32.27,14.0,24.0,58.0,22.41,1968,2032,2037,6302747
2022-06-08 14:19:03.312500,13.0,24.0,58.0,19144.0,2022-06-08 14:23:46,132.0,68.87,0.278333,32.27,13.0,24.0,58.0,17.27,1968,2032,2033,6301884
2022-06-08 14:19:03.343750,13.0,24.0,58.0,19144.0,2022-06-08 14:23:46,132.0,68.87,0.278333,32.27,13.0,24.0,58.0,11.39,1970,2032,2037,6301992
2022-06-08 14:19:03.375000,14.0,24.0,58.0,19144.0,2022-06-08 14:23:46,132.0,68.87,0.278333,32.27,14.0,24.0,58.0,6.0,1969,2032,2043,6301992
2022-06-08 14:19:03.406250,14.0,24.0,58.0,19144.0,2022-06-08 14:23:46,132.0,68.87,0.279614,32.27,14.0,24.0,58.0,0.73,1968,2034,2043,6302315
2022-06-08 14:19:03.437500,13.0,24.0,58.0,19144.0,2022-06-08 14:23:46,132.0,68.87,0.279614,32.27,13.0,24.0,58.0,-4.74,1968,2032,2042,6302315
2022-06-08 14:19:03.468750,14.0,24.0,58.0,19144.0,2022-06-08 14:23:46,132.0,68.87,0.279614,32.27,14.0,24.0,58.0,-9.97,1968,2032,2043,6302639
2022-06-08 14:19:03.500000,13.0,24.0,58.0,19144.0,2022-06-08 14:23:46,132.0,68.87,0.279614,32.27,13.0,24.0,58.0,-15.42,1968,2032,2042,6302639
2022-06-08 14:19:03.531250,13.0,23.0,58.0,19144.0,2022-06-08 14:23:46,132.0,68.72,0.279614,32.27,13.0,23.0,58.0,-21.96,1969,2031,2039,6302639
2022-06-08 14:19:03.562500,13.0,23.0,58.0,19144.0,2022-06-08 14:23:46,132.0,68.72,0.279614,32.27,13.0,23.0,58.0,-28.67,1968,2031,2040,6303125
2022-06-08 14:19:03.593750,13.0,24.0,58.0,19144.0,2022-06-08 14:23:46,132.0,68.72,0.279614,32.27,13.0,24.0,58.0,-33.22,1968,2033,2039,6303557
2022-06-08 14:19:03.625000,14.0,24.0,58.0,19144.0,2022-06-08 14:23:46,132.0,68.72,0.279614,32.27,14.0,24.0,58.0,-34.78,1970,2032,2037,6304906
2022-06-08 14:19:03.656250,13.0,23.0,58.0,19144.0,2022-06-08 14:23:46,132.0,68.72,0.278333,32.27,13.0,23.0,58.0,-35.46,1968,2032,2037,6304906
2022-06-08 14:19:03.687500,13.0,24.0,58.0,19144.0,2022-06-08 14:23:46,132.0,68.72,0.278333,32.27,13.0,24.0,58.0,-38.88,1968,2032,2043,6306525
2022-06-08 14:19:03.718750,13.0,24.0,58.0,19144.0,2022-06-08 14:23:46,132.0,68.72,0.278333,32.27,13.0,24.0,58.0,-46.09,1968,2031,2043,6308846
2022-06-08 14:19:03.750000,14.0,24.0,58.0,19144.0,2022-06-08 14:23:46,132.0,68.72,0.278333,32.27,14.0,24.0,58.0,-51.02,1968,2033,2038,6310735
2022-06-08 14:19:03.781250,13.0,24.0,58.0,19144.0,2022-06-08 14:23:46,132.0,68.72,0.278333,32.27,13.0,24.0,58.0,-44.19,1969,2033,2040,6314405
2022-06-08 14:19:03.812500,14.0,24.0,58.0,19144.0,2022-06-08 14:23:46,132.0,68.72,0.278333,32.27,14.0,24.0,58.0,-24.34,1968,2033,2036,6314405
2022-06-08 14:19:03.843750,13.0,24.0,58.0,19144.0,2022-06-08 14:23:46,132.0,68.72,0.278333,32.27,13.0,24.0,58.0,-1.56,1968,2030,2036,6316456
2022-06-08 14:19:03.875000,13.0,24.0,58.0,19144.0,2022-06-08 14:23:46,132.0,68.72,0.278333,32.27,13.0,24.0,58.0,14.0,1969,2031,2037,6318344
2022-06-08 14:19:03.906250,13.0,24.0,58.0,19144.0,2022-06-08 14:23:46,132.0,68.72,0.279614,32.25,13.0,24.0,58.0,21.34,1968,2031,2039,6320395
2022-06-08 14:19:03.937500,14.0,24.0,58.0,19144.0,2022-06-08 14:23:46,132.0,68.72,0.279614,32.25,14.0,24.0,58.0,24.42,1968,2032,2038,6320395
2022-06-08 14:19:03.968750,13.0,24.0,58.0,19144.0,2022-06-08 14:23:46,132.0,68.72,0.279614,32.25,13.0,24.0,58.0,25.55,1969,2030,2036,6321367
2022-06-08 14:19:04.000000,13.0,23.0,58.0,19144.0,2022-06-08 14:23:46,132.0,68.72,0.279614,32.25,13.0,23.0,58.0,25.25,1969,2029,2037,6321205
2022-06-08 14:19:04.031250,13.0,23.0,58.0,19144.0,2022-06-08 14:23:46,132.0,68.72,0.279614,32.25,13.0,23.0,58.0,24.73,1968,2031,2036,6318938
2022-06-08 14:19:04.062500,13.0,24.0,58.0,19144.0,2022-06-08 14:23:46,132.0,68.72,0.279614,32.25,13.0,24.0,58.0,25.75,1970,2028,2035,6317373
2022-06-08 14:19:04.093750,13.0,23.0,58.0,19144.0,2022-06-08 14:23:46,132.0,68.72,0.279614,32.25,13.0,23.0,58.0,28.47,1968,2027,2033,6317373
2022-06-08 14:19:04.125000,14.0,23.0,58.0,19144.0,2022-06-08 14:23:46,132.0,68.72,0.279614,32.25,14.0,23.0,58.0,30.57,1969,2026,2035,6316186
2022-06-08 14:19:04.156250,13.0,25.0,58.0,19144.0,2022-06-08 14:23:46,132.0,68.72,0.278333,32.25,13.0,25.0,58.0,29.49,1968,2029,2035,6314675
2022-06-08 14:19:04.187500,12.0,24.0,58.0,19144.0,2022-06-08 14:23:46,132.0,68.72,0.278333,32.25,12.0,24.0,58.0,24.08,1968,2028,2037,6313703
2022-06-08 14:19:04.218750,13.0,23.0,58.0,19144.0,2022-06-08 14:23:46,132.0,68.72,0.278333,32.25,13.0,23.0,58.0,12.47,1968,2027,2035,6313703
2022-06-08 14:19:04.250000,13.0,24.0,58.0,19144.0,2022-06-08 14:23:46,132.0,68.72,0.278333,32.25,13.0,24.0,58.0,-6.86,1968,2025,2033,6312678
2022-06-08 14:19:04.281250,13.0,24.0,58.0,19144.0,2022-06-08 14:23:46,132.0,68.72,0.278333,32.25,13.0,24.0,58.0,-28.18,1970,2026,2035,6312192
2022-06-08 14:19:04.312500,13.0,24.0,58.0,19144.0,2022-06-08 14:23:46,132.0,68.72,0.278333,32.25,13.0,24.0,58.0,-39.12,1970,2026,2037,6312192
2022-06-08 14:19:04.343750,13.0,24.0,58.0,19144.0,2022-06-08 14:23:46,132.0,68.72,0.278333,32.25,13.0,24.0,58.0,-33.74,1971,2024,2035,6311167
2022-06-08 14:19:04.375000,13.0,23.0,58.0,19144.0,2022-06-08 14:23:46,132.0,68.72,0.278333,32.25,13.0,23.0,58.0,-19.36,1969,2024,2033,6311167
2022-06-08 14:19:04.406250,13.0,23.0,58.0,19144.0,2022-06-08 14:23:46,132.0,68.72,0.280895,32.25,13.0,23.0,58.0,-5.7,1967,2024,2032,6311167
2022-06-08 14:19:04.437500,13.0,23.0,58.0,19144.0,2022-06-08 14:23:46,132.0,68.72,0.280895,32.25,13.0,23.0,58.0,4.52,1972,2024,2037,6310411
2022-06-08 14:19:04.468750,13.0,24.0,58.0,19144.0,2022-06-08 14:23:46,132.0,68.72,0.280895,32.25,13.0,24.0,58.0,11.88,1971,2025,2037,6310249
2022-06-08 14:19:04.500000,13.0,24.0,58.0,19144.0,2022-06-08 14:23:46,132.0,68.72,0.280895,32.25,13.0,24.0,58.0,14.58,1971,2024,2038,6310249
2022-06-08 14:19:04.531250,13.0,24.0,58.0,19144.0,2022-06-08 14:23:46,132.0,68.55,0.280895,32.25,13.0,24.0,58.0,10.69,1971,2021,2033,6311976
2022-06-08 14:19:04.562500,13.0,24.0,58.0,19144.0,2022-06-08 14:23:46,132.0,68.55,0.280895,32.25,13.0,24.0,58.0,-0.14,1974,2022,2034,6312731
2022-06-08 14:19:04.593750,13.0,24.0,58.0,19144.0,2022-06-08 14:23:46,132.0,68.55,0.280895,32.25,13.0,24.0,58.0,-17.96,1973,2022,2032,6313919
2022-06-08 14:19:04.625000,14.0,24.0,58.0,19144.0,2022-06-08 14:23:46,132.0,68.55,0.280895,32.25,14.0,24.0,58.0,-40.04,1971,2021,2034,6315106
2022-06-08 14:19:04.656250,13.0,23.0,58.0,19144.0,2022-06-08 14:23:46,132.0,68.55,0.280895,32.25,13.0,23.0,58.0,-57.25,1972,2021,2035,6315106
2022-06-08 14:19:04.687500,13.0,23.0,58.0,19144.0,2022-06-08 14:23:46,132.0,68.55,0.280895,32.25,13.0,23.0,58.0,-60.65,1970,2019,2032,6316347
2022-06-08 14:19:04.718750,13.0,23.0,58.0,19144.0,2022-06-08 14:23:46,132.0,68.55,0.280895,32.25,13.0,23.0,58.0,-51.74,1970,2016,2034,6317211
2022-06-08 14:19:04.750000,13.0,24.0,58.0,19144.0,2022-06-08 14:23:46,132.0,68.55,0.280895,32.25,13.0,24.0,58.0,-39.63,1974,2020,2032,6316186
2022-06-08 14:19:04.781250,13.0,24.0,58.0,19144.0,2022-06-08 14:23:46,132.0,68.55,0.280895,32.25,13.0,24.0,58.0,-30.04,1970,2017,2032,6313487
2022-06-08 14:19:04.812500,14.0,23.0,58.0,19144.0,2022-06-08 14:23:46,132.0,68.55,0.280895,32.25,14.0,23.0,58.0,-22.91,1972,2017,2033,6313487
2022-06-08 14:19:04.843750,13.0,24.0,58.0,19144.0,2022-06-08 14:23:46,132.0,68.55,0.280895,32.25,13.0,24.0,58.0,-17.06,1974,2014,2032,6310519
2022-06-08 14:19:04.875000,13.0,23.0,58.0,19144.0,2022-06-08 14:23:46,132.0,68.55,0.280895,32.25,13.0,23.0,58.0,-12.14,1975,2015,2032,6308792
2022-06-08 14:19:04.906250,13.0,23.0,58.0,19144.0,2022-06-08 14:23:46,132.0,68.55,0.279614,32.25,13.0,23.0,58.0,-7.71,1970,2015,2033,6307065
2022-06-08 14:19:04.937500,13.0,23.0,58.0,19144.0,2022-06-08 14:23:46,132.0,68.55,0.279614,32.25,13.0,23.0,58.0,-3.89,1971,2017,2035,6307065
2022-06-08 14:19:04.968750,13.0,23.0,58.0,19144.0,2022-06-08 14:23:46,132.0,68.55,0.279614,32.25,13.0,23.0,58.0,-2.63,1974,2013,2033,6306309
2022-06-08 14:19:05.000000,13.0,24.0,58.0,19144.0,2022-06-08 14:23:46,132.0,68.55,0.279614,32.25,13.0,24.0,58.0,-6.13,1974,2014,2035,6305932
2022-06-08 14:19:05.031250,13.0,24.0,58.0,19144.0,2022-06-08 14:23:46,132.0,68.55,0.279614,32.25,13.0,24.0,58.0,-13.4,1976,2016,2034,6302963
2022-06-08 14:19:05.062500,12.0,24.0,58.0,19144.0,2022-06-08 14:23:46,132.0,68.55,0.279614,32.25,12.0,24.0,58.0,-19.25,1974,2017,2032,6300804
2022-06-08 14:19:05.093750,13.0,24.0,58.0,19144.0,2022-06-08 14:23:46,132.0,68.55,0.279614,32.25,13.0,24.0,58.0,-19.18,1973,2018,2032,6300804
2022-06-08 14:19:05.125000,13.0,24.0,58.0,19144.0,2022-06-08 14:23:46,132.0,68.55,0.279614,32.25,13.0,24.0,58.0,-13.29,1975,2016,2032,6297998
2022-06-08 14:19:05.156250,13.0,24.0,58.0,19144.0,2022-06-08 14:23:46,132.0,68.55,0.279614,32.25,13.0,24.0,58.0,-4.09,1974,2017,2033,6295677
2022-06-08 14:19:05.187500,13.0,24.0,58.0,19144.0,2022-06-08 14:23:46,132.0,68.55,0.279614,32.25,13.0,24.0,58.0,6.47,1976,2021,2032,6294166
2022-06-08 14:19:05.218750,13.0,24.0,58.0,19144.0,2022-06-08 14:23:46,132.0,68.55,0.279614,32.25,13.0,24.0,58.0,16.34,1969,2018,2033,6294166
2022-06-08 14:19:05.250000,14.0,24.0,58.0,19144.0,2022-06-08 14:23:46,132.0,68.55,0.279614,32.25,14.0,24.0,58.0,22.68,1971,2017,2034,6290928
2022-06-08 14:19:05.281250,13.0,24.0,58.0,19144.0,2022-06-08 14:23:46,132.0,68.55,0.279614,32.25,13.0,24.0,58.0,23.73,1971,2020,2035,6287960
2022-06-08 14:19:05.312500,13.0,24.0,58.0,19144.0,2022-06-08 14:23:46,132.0,68.55,0.279614,32.25,13.0,24.0,58.0,19.9,1971,2018,2033,6287204
2022-06-08 14:19:05.343750,13.0,24.0,58.0,19144.0,2022-06-08 14:23:46,132.0,68.55,0.279614,32.25,13.0,24.0,58.0,12.24,1972,2017,2033,6286125
2022-06-08 14:19:05.375000,11.0,24.0,58.0,19144.0,2022-06-08 14:23:46,132.0,68.55,0.279614,32.25,11.0,24.0,58.0,2.04,1973,2018,2034,6286125
2022-06-08 14:19:05.406250,14.0,24.0,58.0,19144.0,2022-06-08 14:23:46,132.0,68.55,0.279614,32.25,14.0,24.0,58.0,-8.68,1972,2016,2032,6285369
2022-06-08 14:19:05.437500,13.0,24.0,58.0,19144.0,2022-06-08 14:23:46,132.0,68.55,0.279614,32.25,13.0,24.0,58.0,-19.74,1973,2015,2032,6285747
2022-06-08 14:19:05.468750,13.0,24.0,58.0,19144.0,2022-06-08 14:23:46,132.0,68.55,0.279614,32.25,13.0,24.0,58.0,-33.65,1974,2015,2033,6283750
2022-06-08 14:19:05.500000,13.0,25.0,58.0,19144.0,2022-06-08 14:23:46,132.0,68.55,0.279614,32.25,13.0,25.0,58.0,-49.75,1974,2018,2035,6283750
2022-06-08 14:19:05.531250,14.0,24.0,58.0,19144.0,2022-06-08 14:23:46,132.0,68.42,0.279614,32.25,14.0,24.0,58.0,-58.98,1977,2017,2032,6282185
2022-06-08 14:19:05.562500,13.0,25.0,58.0,19144.0,2022-06-08 14:23:46,132.0,68.42,0.279614,32.25,13.0,25.0,58.0,-51.26,1971,2016,2032,6281699
2022-06-08 14:19:05.593750,13.0,24.0,58.0,19144.0,2022-06-08 14:23:46,132.0,68.42,0.279614,32.25,13.0,24.0,58.0,-28.32,1973,2017,2033,6280512
2022-06-08 14:19:05.625000,13.0,24.0,58.0,19144.0,2022-06-08 14:23:46,132.0,68.42,0.279614,32.25,13.0,24.0,58.0,-2.8,1973,2016,2032,6280134
2022-06-08 14:19:05.656250,13.0,25.0,58.0,19144.0,2022-06-08 14:23:46,132.0,68.42,0.279614,32.25,13.0,25.0,58.0,15.82,1972,2014,2032,6280134
2022-06-08 14:19:05.687500,14.0,24.0,58.0,19144.0,2022-06-08 14:23:46,132.0,68.42,0.279614,32.25,14.0,24.0,58.0,27.9,1974,2016,2032,6280134
2022-06-08 14:19:05.718750,13.0,24.0,58.0,19144.0,2022-06-08 14:23:46,132.0,68.42,0.279614,32.25,13.0,24.0,58.0,36.82,1974,2015,2032,6280404
2022-06-08 14:19:05.750000,13.0,24.0,58.0,19144.0,2022-06-08 14:23:46,132.0,68.42,0.279614,32.25,13.0,24.0,58.0,42.87,1973,2017,2033,6280512
2022-06-08 14:19:05.781250,13.0,24.0,58.0,19144.0,2022-06-08 14:23:46,132.0,68.42,0.279614,32.25,13.0,24.0,58.0,44.9,1975,2015,2032,6280296
2022-06-08 14:19:05.812500,12.0,24.0,58.0,19144.0,2022-06-08 14:23:46,132.0,68.42,0.279614,32.25,12.0,24.0,58.0,43.99,1977,2016,2031,6280296
2022-06-08 14:19:05.843750,13.0,25.0,58.0,19144.0,2022-06-08 14:23:46,132.0,68.42,0.279614,32.25,13.0,25.0,58.0,42.89,1975,2017,2031,6279972
2022-06-08 14:19:05.875000,13.0,24.0,58.0,19144.0,2022-06-08 14:23:46,132.0,68.42,0.279614,32.25,13.0,24.0,58.0,42.51,1975,2016,2031,6279540
2022-06-08 14:19:05.906250,13.0,24.0,58.0,19144.0,2022-06-08 14:23:46,132.0,68.42,0.279614,32.23,13.0,24.0,58.0,41.57,1973,2015,2031,6280242
2022-06-08 14:19:05.937500,13.0,24.0,58.0,19144.0,2022-06-08 14:23:46,132.0,68.42,0.279614,32.23,13.0,24.0,58.0,39.43,1975,2016,2031,6280242
2022-06-08 14:19:05.968750,13.0,24.0,58.0,19144.0,2022-06-08 14:23:46,132.0,68.42,0.279614,32.23,13.0,24.0,58.0,36.64,1975,2015,2032,6279864
2022-06-08 14:19:06.000000,13.0,24.0,58.0,19144.0,2022-06-08 14:23:46,132.0,68.42,0.279614,32.23,13.0,24.0,58.0,32.58,1974,2016,2032,6279109
2022-06-08 14:19:06.031250,13.0,24.0,58.0,19144.0,2022-06-08 14:23:46,132.0,68.42,0.279614,32.23,13.0,24.0,58.0,26.13,1973,2016,2032,6279648
2022-06-08 14:19:06.062500,12.0,24.0,58.0,19144.0,2022-06-08 14:23:46,132.0,68.42,0.279614,32.23,12.0,24.0,58.0,18.37,1975,2016,2032,6279271
2022-06-08 14:19:06.093750,13.0,24.0,58.0,19144.0,2022-06-08 14:23:46,132.0,68.42,0.279614,32.23,13.0,24.0,58.0,12.37,1974,2018,2032,6279271
2022-06-08 14:19:06.125000,13.0,24.0,58.0,19144.0,2022-06-08 14:23:46,132.0,68.42,0.279614,32.23,13.0,24.0,58.0,9.25,1976,2016,2032,6279648
2022-06-08 14:19:06.156250,13.0,24.0,58.0,19144.0,2022-06-08 14:23:46,132.0,68.42,0.279614,32.23,13.0,24.0,58.0,6.51,1977,2016,2032,6280134
2022-06-08 14:19:06.187500,13.0,24.0,58.0,19144.0,2022-06-08 14:23:46,132.0,68.42,0.279614,32.23,13.0,24.0,58.0,0.5,1972,2018,2033,6278461
2022-06-08 14:19:06.218750,13.0,24.0,58.0,19144.0,2022-06-08 14:23:46,132.0,68.42,0.279614,32.23,13.0,24.0,58.0,-9.71,1976,2016,2032,6278461
2022-06-08 14:19:06.250000,13.0,24.0,58.0,19144.0,2022-06-08 14:23:46,132.0,68.42,0.279614,32.23,13.0,24.0,58.0,-22.32,1974,2014,2033,6277975
2022-06-08 14:19:06.281250,14.0,24.0,58.0,19144.0,2022-06-08 14:23:46,132.0,68.42,0.279614,32.23,14.0,24.0,58.0,-35.26,1974,2017,2032,6277652
2022-06-08 14:19:06.312500,13.0,24.0,58.0,19144.0,2022-06-08 14:23:46,132.0,68.42,0.279614,32.23,13.0,24.0,58.0,-48.01,1974,2016,2032,6278623
2022-06-08 14:19:06.343750,13.0,24.0,58.0,19144.0,2022-06-08 14:23:46,132.0,68.42,0.279614,32.23,13.0,24.0,58.0,-61.23,1976,2013,2032,6278893
2022-06-08 14:19:06.375000,13.0,24.0,58.0,19144.0,2022-06-08 14:23:46,132.0,68.42,0.279614,32.23,13.0,24.0,58.0,-74.38,1974,2017,2032,6278893
2022-06-08 14:19:06.406250,13.0,24.0,58.0,19144.0,2022-06-08 14:23:46,132.0,68.42,0.279614,32.23,13.0,24.0,58.0,-82.24,1974,2016,2034,6279325
2022-06-08 14:19:06.437500,14.0,23.0,58.0,19144.0,2022-06-08 14:23:46,132.0,68.42,0.279614,32.23,14.0,23.0,58.0,-76.33,1973,2018,2032,6280944
2022-06-08 14:19:06.468750,13.0,24.0,58.0,19144.0,2022-06-08 14:23:46,132.0,68.42,0.279614,32.23,13.0,24.0,58.0,-54.77,1973,2017,2032,6282832
2022-06-08 14:19:06.500000,13.0,24.0,58.0,19144.0,2022-06-08 14:23:46,132.0,68.42,0.279614,32.23,13.0,24.0,58.0,-27.6,1975,2016,2031,6282832
2022-06-08 14:19:06.531250,13.0,23.0,58.0,19144.0,2022-06-08 14:23:46,132.0,68.3,0.279614,32.23,13.0,23.0,58.0,-6.53,1973,2016,2031,6284074
2022-06-08 14:19:06.562500,14.0,24.0,58.0,19144.0,2022-06-08 14:23:46,132.0,68.3,0.279614,32.23,14.0,24.0,58.0,6.59,1972,2016,2032,6284614
2022-06-08 14:19:06.593750,14.0,24.0,58.0,19144.0,2022-06-08 14:23:46,132.0,68.3,0.279614,32.23,14.0,24.0,58.0,16.79,1973,2016,2032,6287150
2022-06-08 14:19:06.625000,13.0,24.0,58.0,19144.0,2022-06-08 14:23:46,132.0,68.3,0.279614,32.23,13.0,24.0,58.0,27.11,1974,2014,2032,6288446
2022-06-08 14:19:06.656250,13.0,24.0,58.0,19144.0,2022-06-08 14:23:46,132.0,68.3,0.278333,32.23,13.0,24.0,58.0,37.56,1972,2016,2032,6288446
2022-06-08 14:19:06.687500,14.0,24.0,58.0,19144.0,2022-06-08 14:23:46,132.0,68.3,0.278333,32.23,14.0,24.0,58.0,48.24,1975,2017,2032,6289956
2022-06-08 14:19:06.718750,13.0,24.0,58.0,19144.0,2022-06-08 14:23:46,132.0,68.3,0.278333,32.23,13.0,24.0,58.0,58.75,1974,2017,2032,6292223
2022-06-08 14:19:06.750000,14.0,24.0,58.0,19144.0,2022-06-08 14:23:46,132.0,68.3,0.278333,32.23,14.0,24.0,58.0,67.59,1974,2017,2032,6293572
2022-06-08 14:19:06.781250,14.0,24.0,58.0,19144.0,2022-06-08 14:23:46,132.0,68.3,0.278333,32.23,14.0,24.0,58.0,74.52,1973,2015,2032,6294922
2022-06-08 14:19:06.812500,13.0,24.0,58.0,19144.0,2022-06-08 14:23:46,132.0,68.3,0.278333,32.23,13.0,24.0,58.0,81.83,1976,2016,2033,6294922
2022-06-08 14:19:06.843750,13.0,24.0,58.0,19144.0,2022-06-08 14:23:46,132.0,68.3,0.278333,32.23,13.0,24.0,58.0,90.54,1974,2018,2033,6297080
2022-06-08 14:19:06.875000,13.0,24.0,58.0,19144.0,2022-06-08 14:23:46,132.0,68.3,0.278333,32.23,13.0,24.0,58.0,97.31,1976,2015,2032,6299024
2022-06-08 14:19:06.906250,13.0,24.0,58.0,19144.0,2022-06-08 14:23:46,132.0,68.3,0.279614,32.25,13.0,24.0,58.0,99.51,1972,2018,2031,6300103
2022-06-08 14:19:06.937500,13.0,24.0,58.0,19144.0,2022-06-08 14:23:46,132.0,68.3,0.279614,32.25,13.0,24.0,58.0,100.86,1971,2018,2032,6300103
2022-06-08 14:19:06.968750,14.0,24.0,58.0,19144.0,2022-06-08 14:23:46,132.0,68.3,0.279614,32.25,14.0,24.0,58.0,108.04,1975,2017,2032,6302100
2022-06-08 14:19:07.000000,14.0,24.0,58.0,19144.0,2022-06-08 14:23:46,132.0,68.3,0.279614,32.25,14.0,24.0,58.0,121.95,1975,2014,2032,6303287
2022-06-08 14:19:07.031250,14.0,23.0,58.0,19144.0,2022-06-08 14:23:46,132.0,68.3,0.279614,32.25,14.0,23.0,58.0,133.58,1972,2016,2032,6305338
2022-06-08 14:19:07.062500,14.0,23.0,58.0,19144.0,2022-06-08 14:23:46,132.0,68.3,0.279614,32.25,14.0,23.0,58.0,128.61,1974,2017,2032,6306093
2022-06-08 14:19:07.093750,14.0,24.0,58.0,19144.0,2022-06-08 14:23:46,132.0,68.3,0.279614,32.25,14.0,24.0,58.0,100.03,1973,2015,2032,6306093
2022-06-08 14:19:07.125000,14.0,24.0,58.0,19144.0,2022-06-08 14:23:46,132.0,68.3,0.279614,32.25,14.0,24.0,58.0,57.68,1974,2018,2032,6306741
2022-06-08 14:19:07.156250,13.0,23.0,58.0,19144.0,2022-06-08 14:23:46,132.0,68.3,0.277051,32.25,13.0,23.0,58.0,18.94,1975,2017,2031,6307982
2022-06-08 14:19:07.187500,13.0,24.0,58.0,19144.0,2022-06-08 14:23:46,132.0,68.3,0.277051,32.25,13.0,24.0,58.0,-9.16,1974,2017,2031,6308792
2022-06-08 14:19:07.218750,14.0,24.0,58.0,19144.0,2022-06-08 14:23:46,132.0,68.3,0.277051,32.25,14.0,24.0,58.0,-30.86,1973,2016,2031,6308792
2022-06-08 14:19:07.250000,14.0,24.0,58.0,19144.0,2022-06-08 14:23:46,132.0,68.3,0.277051,32.25,14.0,24.0,58.0,-50.77,1977,2018,2031,6309116
2022-06-08 14:19:07.281250,14.0,24.0,58.0,19144.0,2022-06-08 14:23:46,132.0,68.3,0.277051,32.25,14.0,24.0,58.0,-68.27,1973,2018,2031,6309277
2022-06-08 14:19:07.312500,14.0,24.0,58.0,19144.0,2022-06-08 14:23:46,132.0,68.3,0.277051,32.25,14.0,24.0,58.0,-77.03,1974,2016,2032,6309062
2022-06-08 14:19:07.343750,14.0,23.0,58.0,19144.0,2022-06-08 14:23:46,132.0,68.3,0.277051,32.25,14.0,23.0,58.0,-68.33,1973,2016,2032,6307928
2022-06-08 14:19:07.375000,14.0,24.0,58.0,19144.0,2022-06-08 14:23:46,132.0,68.3,0.277051,32.25,14.0,24.0,58.0,-42.69,1973,2018,2032,6307928
2022-06-08 14:19:07.406250,14.0,24.0,58.0,19144.0,2022-06-08 14:23:46,132.0,68.3,0.279614,32.25,14.0,24.0,58.0,-14.72,1976,2016,2032,6306957
2022-06-08 14:19:07.437500,14.0,23.0,58.0,19144.0,2022-06-08 14:23:46,132.0,68.3,0.279614,32.25,14.0,23.0,58.0,1.62,1974,2019,2032,6305500
2022-06-08 14:19:07.468750,14.0,23.0,58.0,19144.0,2022-06-08 14:23:46,132.0,68.3,0.279614,32.25,14.0,23.0,58.0,5.76,1973,2018,2032,6303557
2022-06-08 14:19:07.500000,14.0,23.0,58.0,19144.0,2022-06-08 14:23:46,132.0,68.3,0.279614,32.25,14.0,23.0,58.0,3.32,1974,2018,2032,6303557
2022-06-08 14:19:07.531250,14.0,24.0,58.0,19144.0,2022-06-08 14:23:46,132.0,68.15,0.279614,32.25,14.0,24.0,58.0,-3.69,1974,2018,2032,6302208
2022-06-08 14:19:07.562500,14.0,24.0,58.0,19144.0,2022-06-08 14:23:46,132.0,68.15,0.279614,32.25,14.0,24.0,58.0,-14.73,1972,2014,2032,6300643
2022-06-08 14:19:07.593750,14.0,24.0,58.0,19144.0,2022-06-08 14:23:46,132.0,68.15,0.279614,32.25,14.0,24.0,58.0,-26.63,1975,2017,2031,6298646
2022-06-08 14:19:07.625000,14.0,24.0,58.0,19144.0,2022-06-08 14:23:46,132.0,68.15,0.279614,32.25,14.0,24.0,58.0,-36.9,1977,2017,2032,6296811
2022-06-08 14:19:07.656250,14.0,24.0,58.0,19144.0,2022-06-08 14:23:46,132.0,68.15,0.278333,32.25,14.0,24.0,58.0,-46.36,1978,2015,2032,6296811
2022-06-08 14:19:07.687500,14.0,23.0,58.0,19144.0,2022-06-08 14:23:46,132.0,68.15,0.278333,32.25,14.0,23.0,58.0,-55.77,1973,2016,2032,6296001
2022-06-08 14:19:07.718750,14.0,24.0,58.0,19144.0,2022-06-08 14:23:46,132.0,68.15,0.278333,32.25,14.0,24.0,58.0,-62.34,1971,2015,2033,6294058
2022-06-08 14:19:07.750000,14.0,23.0,58.0,19144.0,2022-06-08 14:23:46,132.0,68.15,0.278333,32.25,14.0,23.0,58.0,-62.26,1972,2016,2033,6292277
2022-06-08 14:19:07.781250,14.0,24.0,58.0,19144.0,2022-06-08 14:23:46,132.0,68.15,0.278333,32.25,14.0,24.0,58.0,-55.68,1976,2016,2032,6290820
2022-06-08 14:19:07.812500,14.0,24.0,58.0,19144.0,2022-06-08 14:23:46,132.0,68.15,0.278333,32.25,14.0,24.0,58.0,-46.45,1975,2014,2032,6290820
2022-06-08 14:19:07.843750,14.0,23.0,58.0,19144.0,2022-06-08 14:23:46,132.0,68.15,0.278333,32.25,14.0,23.0,58.0,-37.04,1970,2015,2032,6288715
2022-06-08 14:19:07.875000,14.0,24.0,58.0,19144.0,2022-06-08 14:23:46,132.0,68.15,0.278333,32.25,14.0,24.0,58.0,-26.83,1977,2014,2033,6287258
2022-06-08 14:19:07.906250,14.0,24.0,58.0,19144.0,2022-06-08 14:23:46,132.0,68.15,0.280895,32.25,14.0,24.0,58.0,-16.46,1975,2018,2031,6286395
2022-06-08 14:19:07.937500,14.0,23.0,58.0,19144.0,2022-06-08 14:23:46,132.0,68.15,0.280895,32.25,14.0,23.0,58.0,-8.98,1976,2015,2031,6286395
2022-06-08 14:19:07.968750,14.0,24.0,58.0,19144.0,2022-06-08 14:23:46,132.0,68.15,0.280895,32.25,14.0,24.0,58.0,-5.5,1973,2016,2032,6286071
2022-06-08 14:19:08.000000,14.0,24.0,58.0,19144.0,2022-06-08 14:23:46,132.0,68.15,0.280895,32.25,14.0,24.0,58.0,-3.44,1972,2016,2032,6284667
2022-06-08 14:19:08.031250,14.0,24.0,58.0,19144.0,2022-06-08 14:23:46,132.0,68.15,0.280895,32.25,14.0,24.0,58.0,-0.97,1973,2016,2032,6283480
2022-06-08 14:19:08.062500,14.0,24.0,58.0,19144.0,2022-06-08 14:23:46,132.0,68.15,0.280895,32.25,14.0,24.0,58.0,0.31,1975,2015,2033,6283318
2022-06-08 14:19:08.093750,14.0,23.0,58.0,19144.0,2022-06-08 14:23:46,132.0,68.15,0.280895,32.25,14.0,23.0,58.0,-2.06,1972,2016,2032,6283318
2022-06-08 14:19:08.125000,14.0,24.0,58.0,19144.0,2022-06-08 14:23:46,132.0,68.15,0.280895,32.25,14.0,24.0,58.0,-7.97,1973,2017,2032,6282563
2022-06-08 14:19:08.156250,13.0,24.0,58.0,19144.0,2022-06-08 14:23:46,132.0,68.15,0.279614,32.25,13.0,24.0,58.0,-11.99,1976,2015,2032,6282617
2022-06-08 14:19:08.187500,14.0,24.0,58.0,19144.0,2022-06-08 14:23:46,132.0,68.15,0.279614,32.25,14.0,24.0,58.0,-5.96,1976,2017,2031,6281645
2022-06-08 14:19:08.218750,14.0,24.0,58.0,19144.0,2022-06-08 14:23:46,132.0,68.15,0.279614,32.25,14.0,24.0,58.0,11.25,1974,2016,2031,6281645
2022-06-08 14:19:08.250000,14.0,24.0,58.0,19144.0,2022-06-08 14:23:46,132.0,68.15,0.279614,32.25,14.0,24.0,58.0,28.74,1974,2015,2031,6281267
2022-06-08 14:19:08.281250,14.0,24.0,58.0,19144.0,2022-06-08 14:23:46,132.0,68.15,0.279614,32.25,14.0,24.0,58.0,34.12,1975,2018,2031,6280566
2022-06-08 14:19:08.312500,14.0,24.0,58.0,19144.0,2022-06-08 14:23:46,132.0,68.15,0.279614,32.25,14.0,24.0,58.0,25.93,1973,2016,2032,6280080
2022-06-08 14:19:08.343750,14.0,24.0,58.0,19144.0,2022-06-08 14:23:46,132.0,68.15,0.279614,32.25,14.0,24.0,58.0,11.82,1976,2017,2032,6279756
2022-06-08 14:19:08.375000,14.0,24.0,58.0,19144.0,2022-06-08 14:23:46,132.0,68.15,0.279614,32.25,14.0,24.0,58.0,-1.44,1974,2016,2031,6279756
2022-06-08 14:19:08.406250,14.0,24.0,58.0,19144.0,2022-06-08 14:23:46,132.0,68.15,0.279614,32.25,14.0,24.0,58.0,-11.07,1972,2016,2031,6279271
2022-06-08 14:19:08.437500,14.0,24.0,58.0,19144.0,2022-06-08 14:23:46,132.0,68.15,0.279614,32.25,14.0,24.0,58.0,-15.6,1974,2018,2031,6278245
2022-06-08 14:19:08.468750,14.0,24.0,58.0,19144.0,2022-06-08 14:23:46,132.0,68.15,0.279614,32.25,14.0,24.0,58.0,-14.56,1976,2018,2031,6278083
2022-06-08 14:19:08.500000,14.0,24.0,58.0,19144.0,2022-06-08 14:23:46,132.0,68.15,0.279614,32.25,14.0,24.0,58.0,-10.34,1974,2015,2031,6278083
2022-06-08 14:19:08.531250,14.0,24.0,58.0,19144.0,2022-06-08 14:23:46,132.0,68.0,0.279614,32.25,14.0,24.0,58.0,-5.49,1972,2017,2031,6277004
2022-06-08 14:19:08.562500,14.0,24.0,58.0,19144.0,2022-06-08 14:23:46,132.0,68.0,0.279614,32.25,14.0,24.0,58.0,0.23,1975,2018,2031,6275061
2022-06-08 14:19:08.593750,14.0,24.0,58.0,19144.0,2022-06-08 14:23:46,132.0,68.0,0.279614,32.25,14.0,24.0,58.0,7.25,1977,2016,2032,6275007
2022-06-08 14:19:08.625000,14.0,24.0,58.0,19144.0,2022-06-08 14:23:46,132.0,68.0,0.279614,32.25,14.0,24.0,58.0,12.13,1975,2016,2032,6274521
2022-06-08 14:19:08.656250,14.0,24.0,58.0,19144.0,2022-06-08 14:23:46,132.0,68.0,0.279614,32.25,14.0,24.0,58.0,10.77,1977,2015,2032,6274521
2022-06-08 14:19:08.687500,14.0,24.0,58.0,19144.0,2022-06-08 14:23:46,132.0,68.0,0.279614,32.25,14.0,24.0,58.0,4.53,1976,2017,2032,6274089
2022-06-08 14:19:08.718750,14.0,24.0,58.0,19144.0,2022-06-08 14:23:46,132.0,68.0,0.279614,32.25,14.0,24.0,58.0,-1.3,1978,2016,2032,6273496
2022-06-08 14:19:08.750000,14.0,24.0,58.0,19144.0,2022-06-08 14:23:46,132.0,68.0,0.279614,32.25,14.0,24.0,58.0,-4.36,1975,2016,2032,6273442
2022-06-08 14:19:08.781250,14.0,24.0,58.0,19144.0,2022-06-08 14:23:46,132.0,68.0,0.279614,32.25,14.0,24.0,58.0,-7.38,1974,2017,2032,6273658
2022-06-08 14:19:08.812500,14.0,24.0,58.0,19144.0,2022-06-08 14:23:46,132.0,68.0,0.279614,32.25,14.0,24.0,58.0,-12.67,1973,2019,2032,6273658
2022-06-08 14:19:08.843750,14.0,24.0,58.0,19144.0,2022-06-08 14:23:46,132.0,68.0,0.279614,32.25,14.0,24.0,58.0,-18.51,1972,2017,2032,6273442
2022-06-08 14:19:08.875000,14.0,24.0,58.0,19144.0,2022-06-08 14:23:46,132.0,68.0,0.279614,32.25,14.0,24.0,58.0,-22.27,1977,2014,2031,6272848
2022-06-08 14:19:08.906250,13.0,24.0,58.0,19144.0,2022-06-08 14:23:46,132.0,68.0,0.278333,32.23,13.0,24.0,58.0,-24.85,1975,2016,2032,6272417
2022-06-08 14:19:08.937500,14.0,24.0,58.0,19144.0,2022-06-08 14:23:46,132.0,68.0,0.278333,32.23,14.0,24.0,58.0,-29.82,1975,2019,2032,6272417
2022-06-08 14:19:08.968750,14.0,24.0,58.0,19144.0,2022-06-08 14:23:46,132.0,68.0,0.278333,32.23,14.0,24.0,58.0,-39.31,1977,2017,2032,6273442
2022-06-08 14:19:09.000000,14.0,24.0,58.0,19144.0,2022-06-08 14:23:46,132.0,68.0,0.278333,32.23,14.0,24.0,58.0,-50.49,1977,2015,2032,6273604
2022-06-08 14:19:09.031250,14.0,24.0,58.0,19144.0,2022-06-08 14:23:46,132.0,68.0,0.278333,32.23,14.0,24.0,58.0,-54.76,1975,2015,2032,6274198
2022-06-08 14:19:09.062500,14.0,24.0,58.0,19144.0,2022-06-08 14:23:46,132.0,68.0,0.278333,32.23,14.0,24.0,58.0,-43.87,1973,2016,2032,6274467
2022-06-08 14:19:09.093750,14.0,24.0,58.0,19144.0,2022-06-08 14:23:46,132.0,68.0,0.278333,32.23,14.0,24.0,58.0,-20.68,1973,2015,2031,6274467
2022-06-08 14:19:09.125000,14.0,24.0,58.0,19144.0,2022-06-08 14:23:46,132.0,68.0,0.278333,32.23,14.0,24.0,58.0,1.8,1974,2016,2031,6274198
2022-06-08 14:19:09.156250,14.0,24.0,58.0,19144.0,2022-06-08 14:23:46,132.0,68.0,0.279614,32.23,14.0,24.0,58.0,14.86,1973,2018,2032,6274359
2022-06-08 14:19:09.187500,14.0,24.0,58.0,19144.0,2022-06-08 14:23:46,132.0,68.0,0.279614,32.23,14.0,24.0,58.0,21.43,1979,2014,2032,6275223
2022-06-08 14:19:09.218750,14.0,24.0,58.0,19144.0,2022-06-08 14:23:46,132.0,68.0,0.279614,32.23,14.0,24.0,58.0,27.34,1977,2016,2032,6275223
2022-06-08 14:19:09.250000,14.0,24.0,58.0,19144.0,2022-06-08 14:23:46,132.0,68.0,0.279614,32.23,14.0,24.0,58.0,33.44,1973,2018,2032,6275277
2022-06-08 14:19:09.281250,14.0,24.0,58.0,19144.0,2022-06-08 14:23:46,132.0,68.0,0.279614,32.23,14.0,24.0,58.0,37.76,1977,2015,2032,6276033
2022-06-08 14:19:09.312500,14.0,24.0,58.0,19144.0,2022-06-08 14:23:46,132.0,68.0,0.279614,32.23,14.0,24.0,58.0,39.66,1976,2018,2032,6276248
2022-06-08 14:19:09.343750,14.0,24.0,58.0,19144.0,2022-06-08 14:23:46,132.0,68.0,0.279614,32.23,14.0,24.0,58.0,39.93,1976,2015,2032,6278461
2022-06-08 14:19:09.375000,14.0,24.0,58.0,19144.0,2022-06-08 14:23:46,132.0,68.0,0.279614,32.23,14.0,24.0,58.0,39.47,1977,2015,2032,6278461
2022-06-08 14:19:09.406250,14.0,24.0,58.0,19144.0,2022-06-08 14:23:46,132.0,68.0,0.277051,32.23,14.0,24.0,58.0,39.0,1973,2018,2032,6279648
2022-06-08 14:19:09.437500,14.0,24.0,58.0,19144.0,2022-06-08 14:23:46,132.0,68.0,0.277051,32.23,14.0,24.0,58.0,38.69,1975,2016,2032,6280890
2022-06-08 14:19:09.468750,14.0,24.0,58.0,19144.0,2022-06-08 14:23:46,132.0,68.0,0.277051,32.23,14.0,24.0,58.0,37.12,1974,2015,2031,6282725
2022-06-08 14:19:09.500000,14.0,24.0,58.0,19144.0,2022-06-08 14:23:46,132.0,68.0,0.277051,32.23,14.0,24.0,58.0,31.78,1974,2018,2031,6282725
2022-06-08 14:19:09.531250,14.0,24.0,58.0,19144.0,2022-06-08 14:23:46,132.0,67.85,0.277051,32.23,14.0,24.0,58.0,22.83,1974,2018,2031,6284721
2022-06-08 14:19:09.562500,14.0,24.0,58.0,19144.0,2022-06-08 14:23:46,132.0,67.85,0.277051,32.23,14.0,24.0,58.0,14.81,1975,2018,2031,6286611
2022-06-08 14:19:09.593750,13.0,24.0,58.0,19144.0,2022-06-08 14:23:46,132.0,67.85,0.277051,32.23,13.0,24.0,58.0,10.84,1973,2018,2031,6288446
2022-06-08 14:19:09.625000,15.0,24.0,58.0,19144.0,2022-06-08 14:23:46,132.0,67.85,0.277051,32.23,15.0,24.0,58.0,7.41,1976,2018,2031,6291036
2022-06-08 14:19:09.656250,13.0,24.0,58.0,19144.0,2022-06-08 14:23:46,132.0,67.85,0.279614,32.23,13.0,24.0,58.0,-0.35,1977,2016,2031,6291036
2022-06-08 14:19:09.687500,14.0,24.0,58.0,19144.0,2022-06-08 14:23:46,132.0,67.85,0.279614,32.23,14.0,24.0,58.0,-10.56,1976,2016,2031,6292655
2022-06-08 14:19:09.718750,14.0,24.0,58.0,19144.0,2022-06-08 14:23:46,132.0,67.85,0.279614,32.23,14.0,24.0,58.0,-17.99,1973,2016,2031,6294166
2022-06-08 14:19:09.750000,13.0,25.0,58.0,19144.0,2022-06-08 14:23:46,132.0,67.85,0.279614,32.23,13.0,25.0,58.0,-22.73,1976,2017,2031,6296757
2022-06-08 14:19:09.781250,13.0,24.0,58.0,19144.0,2022-06-08 14:23:46,132.0,67.85,0.279614,32.23,13.0,24.0,58.0,-29.56,1976,2015,2031,6298376
2022-06-08 14:19:09.812500,14.0,24.0,58.0,19144.0,2022-06-08 14:23:46,132.0,67.85,0.279614,32.23,14.0,24.0,58.0,-40.96,1975,2015,2032,6298376
2022-06-08 14:19:09.843750,13.0,24.0,58.0,19144.0,2022-06-08 14:23:46,132.0,67.85,0.279614,32.23,13.0,24.0,58.0,-52.56,1976,2017,2032,6300318
2022-06-08 14:19:09.875000,14.0,24.0,58.0,19144.0,2022-06-08 14:23:46,132.0,67.85,0.279614,32.23,14.0,24.0,58.0,-54.69,1976,2018,2032,6302531
2022-06-08 14:19:09.906250,14.0,24.0,58.0,19144.0,2022-06-08 14:23:46,132.0,67.85,0.278333,32.21,14.0,24.0,58.0,-40.63,1975,2018,2032,6304474
2022-06-08 14:19:09.937500,13.0,24.0,58.0,19144.0,2022-06-08 14:23:46,132.0,67.85,0.278333,32.21,13.0,24.0,58.0,-15.65,1974,2021,2031,6304474
2022-06-08 14:19:09.968750,14.0,24.0,58.0,19144.0,2022-06-08 14:23:46,132.0,67.85,0.278333,32.21,14.0,24.0,58.0,6.87,1972,2018,2031,6306363
2022-06-08 14:19:10.000000,13.0,24.0,58.0,19144.0,2022-06-08 14:23:46,132.0,67.85,0.278333,32.21,13.0,24.0,58.0,19.9,1973,2017,2031,6308846
2022-06-08 14:19:10.031250,13.0,24.0,58.0,19144.0,2022-06-08 14:23:46,132.0,67.85,0.278333,32.21,13.0,24.0,58.0,27.52,1973,2018,2032,6310357
2022-06-08 14:19:10.062500,13.0,24.0,58.0,19144.0,2022-06-08 14:23:46,132.0,67.85,0.278333,32.21,13.0,24.0,58.0,35.06,1974,2016,2033,6312731
2022-06-08 14:19:10.093750,13.0,23.0,58.0,19144.0,2022-06-08 14:23:46,132.0,67.85,0.278333,32.21,13.0,23.0,58.0,42.16,1974,2015,2032,6312731
2022-06-08 14:19:10.125000,14.0,24.0,58.0,19144.0,2022-06-08 14:23:46,132.0,67.85,0.278333,32.21,14.0,24.0,58.0,46.62,1972,2017,2031,6314135
2022-06-08 14:19:10.156250,14.0,24.0,58.0,19144.0,2022-06-08 14:23:46,132.0,67.85,0.280895,32.21,14.0,24.0,58.0,49.05,1971,2020,2031,6317049
2022-06-08 14:19:10.187500,13.0,24.0,58.0,19144.0,2022-06-08 14:23:46,132.0,67.85,0.280895,32.21,13.0,24.0,58.0,51.44,1974,2019,2031,6318182
2022-06-08 14:19:10.218750,14.0,24.0,58.0,19144.0,2022-06-08 14:23:46,132.0,67.85,0.280895,32.21,14.0,24.0,58.0,53.71,1972,2018,2031,6318182
2022-06-08 14:19:10.250000,13.0,24.0,58.0,19144.0,2022-06-08 14:23:46,132.0,67.85,0.280895,32.21,13.0,24.0,58.0,53.98,1970,2019,2031,6319855
2022-06-08 14:19:10.281250,13.0,24.0,58.0,19144.0,2022-06-08 14:23:46,132.0,67.85,0.280895,32.21,13.0,24.0,58.0,51.47,1974,2017,2032,6321151
2022-06-08 14:19:10.312500,13.0,24.0,58.0,19144.0,2022-06-08 14:23:46,132.0,67.85,0.280895,32.21,13.0,24.0,58.0,46.77,1973,2018,2032,6323364
2022-06-08 14:19:10.343750,14.0,24.0,58.0,19144.0,2022-06-08 14:23:46,132.0,67.85,0.280895,32.21,14.0,24.0,58.0,39.78,1974,2016,2031,6325468
2022-06-08 14:19:10.375000,13.0,24.0,58.0,19144.0,2022-06-08 14:23:46,132.0,67.85,0.280895,32.21,13.0,24.0,58.0,30.41,1976,2020,2031,6325468
2022-06-08 14:19:10.406250,13.0,24.0,58.0,19144.0,2022-06-08 14:23:46,132.0,67.85,0.280895,32.21,13.0,24.0,58.0,20.84,1976,2018,2031,6327357
2022-06-08 14:19:10.437500,14.0,24.0,58.0,19144.0,2022-06-08 14:23:46,132.0,67.85,0.280895,32.21,14.0,24.0,58.0,13.83,1974,2020,2032,6328976
2022-06-08 14:19:10.468750,12.0,24.0,58.0,19144.0,2022-06-08 14:23:46,132.0,67.85,0.280895,32.21,12.0,24.0,58.0,9.13,1972,2018,2031,6332053
2022-06-08 14:19:10.500000,14.0,24.0,58.0,19144.0,2022-06-08 14:23:46,132.0,67.85,0.280895,32.21,14.0,24.0,58.0,3.63,1972,2017,2031,6332053
2022-06-08 14:19:10.531250,14.0,24.0,58.0,19144.0,2022-06-08 14:23:46,132.0,67.8,0.280895,32.21,14.0,24.0,58.0,-4.78,1975,2020,2031,6333132
2022-06-08 14:19:10.562500,13.0,24.0,58.0,19144.0,2022-06-08 14:23:46,132.0,67.8,0.280895,32.21,13.0,24.0,58.0,-14.93,1973,2018,2031,6334265
2022-06-08 14:19:10.593750,14.0,24.0,58.0,19144.0,2022-06-08 14:23:46,132.0,67.8,0.280895,32.21,14.0,24.0,58.0,-24.12,1975,2019,2031,6335668
2022-06-08 14:19:10.625000,14.0,24.0,58.0,19144.0,2022-06-08 14:23:46,132.0,67.8,0.280895,32.21,14.0,24.0,58.0,-31.68,1974,2022,2031,6337989
2022-06-08 14:19:10.656250,14.0,24.0,58.0,19144.0,2022-06-08 14:23:46,132.0,67.8,0.278333,32.21,14.0,24.0,58.0,-39.77,1972,2020,2031,6337989
2022-06-08 14:19:10.687500,14.0,24.0,58.0,19144.0,2022-06-08 14:23:46,132.0,67.8,0.278333,32.21,14.0,24.0,58.0,-50.59,1975,2020,2030,6339662
2022-06-08 14:19:10.718750,14.0,24.0,58.0,19144.0,2022-06-08 14:23:46,132.0,67.8,0.278333,32.21,14.0,24.0,58.0,-62.31,1971,2020,2032,6341929
2022-06-08 14:19:10.750000,14.0,24.0,58.0,19144.0,2022-06-08 14:23:46,132.0,67.8,0.278333,32.21,14.0,24.0,58.0,-67.45,1972,2019,2031,6343332
2022-06-08 14:19:10.781250,14.0,24.0,58.0,19144.0,2022-06-08 14:23:46,132.0,67.8,0.278333,32.21,14.0,24.0,58.0,-57.8,1976,2021,2031,6344951
2022-06-08 14:19:10.812500,13.0,24.0,58.0,19144.0,2022-06-08 14:23:46,132.0,67.8,0.278333,32.21,13.0,24.0,58.0,-34.46,1975,2018,2030,6344951
2022-06-08 14:19:10.843750,14.0,23.0,58.0,19144.0,2022-06-08 14:23:46,132.0,67.8,0.278333,32.21,14.0,23.0,58.0,-9.44,1974,2018,2031,6346516
2022-06-08 14:19:10.875000,13.0,24.0,58.0,19144.0,2022-06-08 14:23:46,132.0,67.8,0.278333,32.21,13.0,24.0,58.0,6.27,1973,2020,2032,6348243
2022-06-08 14:19:10.906250,14.0,24.0,58.0,19144.0,2022-06-08 14:23:46,132.0,67.8,0.279614,32.23,14.0,24.0,58.0,12.97,1972,2022,2032,6350186
2022-06-08 14:19:10.937500,14.0,24.0,58.0,19144.0,2022-06-08 14:23:46,132.0,67.8,0.279614,32.23,14.0,24.0,58.0,17.12,1973,2018,2032,6350186
2022-06-08 14:19:10.968750,14.0,24.0,58.0,19144.0,2022-06-08 14:23:46,132.0,67.8,0.279614,32.23,14.0,24.0,58.0,21.38,1973,2017,2031,6351967
2022-06-08 14:19:11.000000,14.0,24.0,58.0,19144.0,2022-06-08 14:23:46,132.0,67.8,0.279614,32.23,14.0,24.0,58.0,24.63,1973,2019,2031,6354180
2022-06-08 14:19:11.031250,14.0,24.0,58.0,19144.0,2022-06-08 14:23:46,132.0,67.8,0.279614,32.23,14.0,24.0,58.0,27.05,1973,2020,2031,6354288
2022-06-08 14:19:11.062500,14.0,24.0,58.0,19144.0,2022-06-08 14:23:46,132.0,67.8,0.279614,32.23,14.0,24.0,58.0,29.68,1973,2021,2031,6355637
2022-06-08 14:19:11.093750,14.0,24.0,58.0,19144.0,2022-06-08 14:23:46,132.0,67.8,0.279614,32.23,14.0,24.0,58.0,31.32,1973,2021,2031,6355637
2022-06-08 14:19:11.125000,13.0,24.0,58.0,19144.0,2022-06-08 14:23:46,132.0,67.8,0.279614,32.23,13.0,24.0,58.0,30.28,1976,2018,2031,6356824
2022-06-08 14:19:11.156250,14.0,24.0,58.0,19144.0,2022-06-08 14:23:46,132.0,67.8,0.280895,32.23,14.0,24.0,58.0,27.32,1975,2019,2031,6357310
2022-06-08 14:19:11.187500,14.0,24.0,58.0,19144.0,2022-06-08 14:23:46,132.0,67.8,0.280895,32.23,14.0,24.0,58.0,23.51,1971,2019,2031,6358066
2022-06-08 14:19:11.218750,14.0,24.0,58.0,19144.0,2022-06-08 14:23:46,132.0,67.8,0.280895,32.23,14.0,24.0,58.0,17.54,1977,2018,2031,6358066
2022-06-08 14:19:11.250000,14.0,23.0,58.0,19144.0,2022-06-08 14:23:46,132.0,67.8,0.280895,32.23,14.0,23.0,58.0,8.65,1973,2021,2031,6359307
2022-06-08 14:19:11.281250,14.0,24.0,58.0,19144.0,2022-06-08 14:23:46,132.0,67.8,0.280895,32.23,14.0,24.0,58.0,-0.73,1975,2017,2030,6360225
2022-06-08 14:19:11.312500,14.0,23.0,58.0,19144.0,2022-06-08 14:23:46,132.0,67.8,0.280895,32.23,14.0,23.0,58.0,-7.84,1972,2018,2032,6360980
2022-06-08 14:19:11.343750,14.0,24.0,58.0,19144.0,2022-06-08 14:23:46,132.0,67.8,0.280895,32.23,14.0,24.0,58.0,-13.41,1974,2019,2032,6361736
2022-06-08 14:19:11.375000,14.0,24.0,58.0,19144.0,2022-06-08 14:23:46,132.0,67.8,0.280895,32.23,14.0,24.0,58.0,-19.34,1974,2019,2032,6361736
2022-06-08 14:19:11.406250,14.0,24.0,58.0,19144.0,2022-06-08 14:23:46,132.0,67.8,0.279614,32.23,14.0,24.0,58.0,-24.74,1977,2019,2032,6361574
2022-06-08 14:19:11.437500,14.0,23.0,58.0,19144.0,2022-06-08 14:23:46,132.0,67.8,0.279614,32.23,14.0,23.0,58.0,-27.66,1974,2019,2032,6361898
2022-06-08 14:19:11.468750,14.0,24.0,58.0,19144.0,2022-06-08 14:23:46,132.0,67.8,0.279614,32.23,14.0,24.0,58.0,-29.37,1972,2019,2032,6362059
2022-06-08 14:19:11.500000,14.0,23.0,58.0,19144.0,2022-06-08 14:23:46,132.0,67.8,0.279614,32.23,14.0,23.0,58.0,-34.04,1974,2020,2031,6362059
2022-06-08 14:19:11.531250,14.0,23.0,58.0,19144.0,2022-06-08 14:23:46,132.0,67.75,0.279614,32.23,14.0,23.0,58.0,-44.39,1974,2019,2031,6362168
2022-06-08 14:19:11.562500,14.0,23.0,58.0,19144.0,2022-06-08 14:23:46,132.0,67.75,0.279614,32.23,14.0,23.0,58.0,-57.03,1972,2018,2031,6362222
2022-06-08 14:19:11.593750,14.0,23.0,58.0,19144.0,2022-06-08 14:23:46,132.0,67.75,0.279614,32.23,14.0,23.0,58.0,-62.39,1973,2019,2031,6362383
2022-06-08 14:19:11.625000,14.0,24.0,58.0,19144.0,2022-06-08 14:23:46,132.0,67.75,0.279614,32.23,14.0,24.0,58.0,-53.19,1975,2017,2031,6362275
2022-06-08 14:19:11.656250,14.0,24.0,58.0,19144.0,2022-06-08 14:23:46,132.0,67.75,0.279614,32.23,14.0,24.0,58.0,-33.88,1974,2018,2031,6362275
2022-06-08 14:19:11.687500,14.0,24.0,58.0,19144.0,2022-06-08 14:23:46,132.0,67.75,0.279614,32.23,14.0,24.0,58.0,-16.53,1971,2018,2029,6363031
2022-06-08 14:19:11.718750,14.0,24.0,58.0,19144.0,2022-06-08 14:23:46,132.0,67.75,0.279614,32.23,14.0,24.0,58.0,-7.58,1973,2018,2031,6362869
2022-06-08 14:19:11.750000,14.0,24.0,58.0,19144.0,2022-06-08 14:23:46,132.0,67.75,0.279614,32.23,14.0,24.0,58.0,-4.03,1975,2019,2031,6363787
2022-06-08 14:19:11.781250,14.0,23.0,58.0,19144.0,2022-06-08 14:23:46,132.0,67.75,0.279614,32.23,14.0,23.0,58.0,-1.61,1973,2020,2031,6368374
2022-06-08 14:19:11.812500,14.0,24.0,58.0,19144.0,2022-06-08 14:23:46,132.0,67.75,0.279614,32.23,14.0,24.0,58.0,0.04,1973,2022,2029,6368374
2022-06-08 14:19:11.843750,14.0,23.0,58.0,19144.0,2022-06-08 14:23:46,132.0,67.75,0.279614,32.23,14.0,23.0,58.0,0.96,1973,2021,2031,6372206
2022-06-08 14:19:11.875000,13.0,24.0,58.0,19144.0,2022-06-08 14:23:46,132.0,67.75,0.279614,32.23,13.0,24.0,58.0,3.1,1973,2019,2031,6373933
2022-06-08 14:19:11.906250,14.0,24.0,58.0,19144.0,2022-06-08 14:23:46,132.0,67.75,0.278333,32.21,14.0,24.0,58.0,7.48,1971,2022,2031,6372152
2022-06-08 14:19:11.937500,14.0,24.0,58.0,19144.0,2022-06-08 14:23:46,132.0,67.75,0.278333,32.21,14.0,24.0,58.0,12.03,1971,2020,2031,6372152
2022-06-08 14:19:11.968750,14.0,24.0,58.0,19144.0,2022-06-08 14:23:46,132.0,67.75,0.278333,32.21,14.0,24.0,58.0,14.56,1970,2023,2032,6371342
2022-06-08 14:19:12.000000,14.0,24.0,58.0,19144.0,2022-06-08 14:23:46,132.0,67.75,0.278333,32.21,14.0,24.0,58.0,14.29,1975,2027,2035,6369076
2022-06-08 14:19:12.031250,14.0,24.0,58.0,19144.0,2022-06-08 14:23:46,132.0,67.75,0.278333,32.21,14.0,24.0,58.0,9.88,1975,2027,2032,6365567
2022-06-08 14:19:12.062500,14.0,24.0,58.0,19144.0,2022-06-08 14:23:46,132.0,67.75,0.278333,32.21,14.0,24.0,58.0,0.8,1969,2026,2032,6357580
2022-06-08 14:19:12.093750,14.0,24.0,58.0,19144.0,2022-06-08 14:23:46,132.0,67.75,0.278333,32.21,14.0,24.0,58.0,-9.06,1968,2028,2033,6357580
2022-06-08 14:19:12.125000,14.0,24.0,58.0,19144.0,2022-06-08 14:23:46,132.0,67.75,0.278333,32.21,14.0,24.0,58.0,-14.67,1966,2030,2033,6352993
2022-06-08 14:19:12.156250,14.0,24.0,58.0,19144.0,2022-06-08 14:23:46,132.0,67.75,0.278333,32.21,14.0,24.0,58.0,-16.21,1967,2028,2032,6352237
2022-06-08 14:19:12.187500,13.0,24.0,58.0,19144.0,2022-06-08 14:23:46,132.0,67.75,0.278333,32.21,13.0,24.0,58.0,-17.47,1973,2028,2033,6352723
2022-06-08 14:19:12.218750,14.0,24.0,58.0,19144.0,2022-06-08 14:23:46,132.0,67.75,0.278333,32.21,14.0,24.0,58.0,-19.96,1969,2030,2037,6352723
2022-06-08 14:19:12.250000,14.0,24.0,58.0,19144.0,2022-06-08 14:23:46,132.0,67.75,0.278333,32.21,14.0,24.0,58.0,-22.39,1970,2031,2041,6353154
2022-06-08 14:19:12.281250,14.0,24.0,58.0,19144.0,2022-06-08 14:23:46,132.0,67.75,0.278333,32.21,14.0,24.0,58.0,-24.77,1970,2031,2041,6354180
2022-06-08 14:19:12.312500,13.0,24.0,58.0,19144.0,2022-06-08 14:23:46,132.0,67.75,0.278333,32.21,13.0,24.0,58.0,-29.93,1968,2033,2036,6357148
2022-06-08 14:19:12.343750,14.0,24.0,58.0,19144.0,2022-06-08 14:23:46,132.0,67.75,0.278333,32.21,14.0,24.0,58.0,-40.16,1969,2032,2034,6361034
2022-06-08 14:19:12.375000,14.0,24.0,58.0,19144.0,2022-06-08 14:23:46,132.0,67.75,0.278333,32.21,14.0,24.0,58.0,-52.46,1968,2035,2038,6361034
2022-06-08 14:19:12.406250,14.0,24.0,58.0,19144.0,2022-06-08 14:23:46,132.0,67.75,0.280895,32.21,14.0,24.0,58.0,-57.64,1968,2038,2043,6363948
2022-06-08 14:19:12.437500,14.0,24.0,58.0,19144.0,2022-06-08 14:23:46,132.0,67.75,0.280895,32.21,14.0,24.0,58.0,-47.61,1969,2040,2046,6366755
2022-06-08 14:19:12.468750,13.0,24.0,58.0,19144.0,2022-06-08 14:23:46,132.0,67.75,0.280895,32.21,13.0,24.0,58.0,-24.65,1967,2043,2043,6368698
2022-06-08 14:19:12.500000,14.0,24.0,58.0,19144.0,2022-06-08 14:23:46,132.0,67.75,0.280895,32.21,14.0,24.0,58.0,-0.19,1967,2046,2049,6368698
2022-06-08 14:19:12.531250,14.0,24.0,58.0,19144.0,2022-06-08 14:23:46,132.0,67.72,0.280895,32.21,14.0,24.0,58.0,16.79,1967,2047,2050,6369183
2022-06-08 14:19:12.562500,14.0,24.0,58.0,19144.0,2022-06-08 14:23:46,132.0,67.72,0.280895,32.21,14.0,24.0,58.0,26.49,1967,2046,2051,6368698
2022-06-08 14:19:12.593750,13.0,24.0,58.0,19144.0,2022-06-08 14:23:46,132.0,67.72,0.280895,32.21,13.0,24.0,58.0,32.89,1967,2050,2056,6368374
